# targetAltitude=3000.0
time,altitude,velocity,horizontalVelocity,acceleration,accelerationX,accelerationY,accelerationZ,temperature,pressure,humidity,gpsLat,gpsLon,pitch,roll,yaw
0.0,0.0,0.0,0.0,10.08056453657338,7.208941198730468,4.7572786987304685,-5.197811804199218,20.0,101.3,50.0,0.0,0.0,0.8091603053435115,-0.549618320610687,3.1908396946564888
0.05,0.0,0.0,0.0,10.175488031735457,7.275978845214843,4.8123453369140625,-5.238513232421875,20.0,101.3,50.0,0.0,0.0,-0.2900763358778626,0.1984732824427481,3.7557251908396947
0.09,0.0,0.0,0.0,10.403095772748864,7.359775903320312,5.003881469726562,-5.386953735351562,20.0,101.3,50.0,0.0,0.0,0.366412213740458,-0.7786259541984732,1.9236641221374047
0.13,0.0,0.0,0.0,10.403095772748864,7.359775903320312,5.003881469726562,-5.386953735351562,20.0,101.3,50.0,0.0,0.0,0.366412213740458,-0.7786259541984732,1.9236641221374047
0.14,0.0,0.0,0.0,10.062682039503036,7.218518005371093,4.704606262207031,-5.197811804199218,20.0,101.3,50.0,0.0,0.0,-0.7633587786259542,-0.42748091603053434,1.618320610687023
0.19,0.0,0.0,0.0,10.094779017964846,7.223306408691406,4.726154077148437,-5.233724829101562,20.0,101.3,50.0,0.0,0.0,-1.3129770992366412,-1.1297709923664123,0.07633587786259542
0.24,0.0,0.0,0.0,10.077511051611546,7.223306408691406,4.783614916992187,-5.147533569335937,20.0,101.3,50.0,0.0,0.0,-0.48854961832061067,-0.8091603053435115,2.0763358778625953
0.29,0.0,0.0,0.0,10.147683012348065,7.259219433593749,4.778826513671874,-5.238513232421875,20.0,101.3,50.0,0.0,0.0,-0.7786259541984732,-0.6564885496183206,1.6641221374045803
0.33,0.0,0.0,0.0,10.020545140234631,7.211335400390625,4.678270043945313,-5.149927770996094,20.0,101.3,50.0,0.0,0.0,-0.9923664122137404,-1.251908396946565,0.2900763358778626
0.36,0.0,0.0,0.0,10.020545140234631,7.211335400390625,4.678270043945313,-5.149927770996094,20.0,101.3,50.0,0.0,0.0,-0.9923664122137404,-1.251908396946565,0.2900763358778626
0.38,0.0,0.0,0.0,10.095455574560818,7.235277416992187,4.735730883789063,-5.209782812499999,20.0,101.3,50.0,0.0,0.0,-0.44274809160305345,-0.8549618320610687,1.786259541984733
0.43,0.0,0.0,0.0,10.158903756423719,7.295132458496093,4.802768530273437,-5.1882349975585935,20.0,101.3,50.0,0.0,0.0,0.030534351145038167,-0.366412213740458,3.7099236641221376
0.48,0.0,0.0,0.0,10.112863514824985,7.278373046874999,4.709394665527343,-5.2073886108398435,20.0,101.3,50.0,0.0,0.0,-0.8396946564885496,-0.916030534351145,2.0
0.53,0.0,0.0,0.0,10.016774368943764,7.244854223632812,4.673481640625,-5.099649536132812,20.0,101.3,50.0,0.0,0.0,-0.9007633587786259,-1.297709923664122,0.6412213740458015
0.57,0.0,0.0,0.0,10.090674416498075,7.256825231933593,4.695029455566406,-5.2073886108398435,20.0,101.3,50.0,0.0,0.0,-0.2748091603053435,-0.732824427480916,2.33587786259542
0.62,0.0,0.0,0.0,10.087163990177189,7.3094976684570305,4.618415002441406,-5.195417602539062,20.0,101.3,50.0,0.0,0.0,-0.4732824427480916,-0.8854961832061069,1.7709923664122138
0.67,0.0,0.0,0.0,10.085160650357604,7.283161450195312,4.69263525390625,-5.161898779296875,20.0,101.3,50.0,0.0,0.0,-1.1450381679389312,-1.251908396946565,0.21374045801526717
0.72,0.0,0.0,0.0,10.112982546911962,7.299920861816406,4.697423657226563,-5.1882349975585935,20.0,101.3,50.0,0.0,0.0,-0.32061068702290074,-0.9923664122137404,1.618320610687023
0.77,0.0,0.0,0.0,10.139723585991948,7.321468676757812,4.695029455566406,-5.212177014160156,20.0,101.3,50.0,0.0,0.0,1.4961832061068703,-0.183206106870229,5.694656488549619
0.81,0.0,0.0,0.0,10.096816499885056,7.3286512817382805,4.6064439941406246,-5.197811804199218,20.0,101.3,50.0,0.0,0.0,1.1145038167938932,0.0,4.3816793893129775
0.85,0.0,0.0,0.0,10.096816499885056,7.3286512817382805,4.6064439941406246,-5.197811804199218,20.0,101.3,50.0,0.0,0.0,1.1145038167938932,0.0,4.3816793893129775
0.85,0.0,0.0,0.0,10.096816499885056,7.3286512817382805,4.6064439941406246,-5.197811804199218,20.0,101.3,50.0,0.0,0.0,1.1145038167938932,0.0,4.3816793893129775
0.86,0.0,0.0,0.0,10.103066905873748,7.350199096679687,4.620809204101562,-5.166687182617188,20.0,101.3,50.0,0.0,0.0,-1.1450381679389312,-1.099236641221374,-0.21374045801526717
0.91,0.0,0.0,0.0,10.080435739029381,7.3669585083007805,4.565742565917969,-5.147533569335937,20.0,101.3,50.0,0.0,0.0,-0.8549618320610687,-0.8702290076335878,1.2213740458015268
0.96,0.0,0.0,0.0,10.13705633200904,7.381323718261719,4.594472985839843,-5.212177014160156,20.0,101.3,50.0,0.0,0.0,-0.7175572519083969,-1.0534351145038168,0.7633587786259542
1.01,0.0,0.0,0.0,10.054187828897676,7.326257080078125,4.548983154296875,-5.1690813842773435,20.0,101.3,50.0,0.0,0.0,-0.9465648854961832,-0.9618320610687023,0.9770992366412213
1.05,0.0,0.0,0.0,10.132153086445442,7.371746911621093,4.6447512207031245,-5.1714755859374995,20.0,101.3,50.0,0.0,0.0,-0.33587786259541985,-0.9618320610687023,1.1297709923664123
1.1,0.0,0.0,0.0,10.108115542723873,7.371746911621093,4.592078784179687,-5.1714755859374995,20.0,101.3,50.0,0.0,0.0,-1.1908396946564885,-0.916030534351145,0.33587786259541985
1.15,0.0,0.0,0.0,10.061983340159037,7.388506323242187,4.546588952636719,-5.097255334472656,20.0,101.3,50.0,0.0,0.0,-0.5648854961832062,-1.1145038167938932,0.8854961832061069
1.2,0.0,0.0,0.0,10.093761968436235,7.357381701660156,4.618415002441406,-5.140350964355468,20.0,101.3,50.0,0.0,0.0,-0.7633587786259542,-0.3511450381679389,2.015267175572519
1.25,0.0,0.0,0.0,10.120440230977495,7.4028715332031245,4.560954162597656,-5.178658190917968,20.0,101.3,50.0,0.0,0.0,0.3969465648854962,-0.9618320610687023,2.3969465648854964
1.29,0.0,0.0,0.0,10.061438702700467,7.3861121215820305,4.546588952636719,-5.099649536132812,20.0,101.3,50.0,0.0,0.0,-1.450381679389313,-1.1145038167938932,-0.07633587786259542
1.34,0.0,0.0,0.0,10.116185684382904,7.433996154785156,4.544194750976562,-5.140350964355468,20.0,101.3,50.0,0.0,0.0,-0.9618320610687023,-1.2671755725190839,0.4732824427480916
1.36,0.0,0.0,0.0,10.116185684382904,7.433996154785156,4.544194750976562,-5.140350964355468,20.0,101.3,50.0,0.0,0.0,-0.9618320610687023,-1.2671755725190839,0.4732824427480916
1.39,0.0,0.0,0.0,10.093602956455124,7.381323718261719,4.541800549316406,-5.173869787597656,20.0,101.3,50.0,0.0,0.0,0.030534351145038167,-0.9770992366412213,1.633587786259542
1.42,0.0,0.0,0.0,10.093602956455124,7.381323718261719,4.541800549316406,-5.173869787597656,20.0,101.3,50.0,0.0,0.0,0.030534351145038167,-0.9770992366412213,1.633587786259542
1.44,0.0,0.0,0.0,10.125160910617149,7.42441934814453,4.541800549316406,-5.173869787597656,20.0,101.3,50.0,0.0,0.0,-0.4122137404580153,-0.6412213740458015,1.5114503816793894
1.49,0.0,0.0,0.0,10.08956179158157,7.3861121215820305,4.565742565917969,-5.137956762695312,20.0,101.3,50.0,0.0,0.0,-0.6564885496183206,-1.3129770992366412,0.3969465648854962
1.54,0.0,0.0,0.0,10.08576481998766,7.448361364746093,4.460397692871093,-5.1331683593749995,20.0,101.3,50.0,0.0,0.0,-0.13740458015267176,-0.7786259541984732,1.9389312977099236
1.58,0.0,0.0,0.0,10.119290093585267,7.465120776367187,4.472368701171875,-5.164292980957031,20.0,101.3,50.0,0.0,0.0,-0.916030534351145,-1.0076335877862594,0.2595419847328244
1.63,0.0,0.0,0.0,10.073501841273993,7.40526573486328,4.479551306152343,-5.154716174316406,20.0,101.3,50.0,0.0,0.0,-0.8091603053435115,-1.0687022900763359,0.5038167938931297
1.68,0.0,0.0,0.0,10.098462764281017,7.4411787597656245,4.465186096191406,-5.164292980957031,20.0,101.3,50.0,0.0,0.0,-0.4580152671755725,-0.8244274809160306,1.4045801526717556
1.73,0.0,0.0,0.0,10.067705948267482,7.426813549804687,4.474762902832031,-5.116408947753906,20.0,101.3,50.0,0.0,0.0,-0.8854961832061069,-0.9923664122137404,0.7175572519083969
1.78,0.0,0.0,0.0,10.067589797093044,7.398083129882812,4.489128112792969,-5.145139367675781,20.0,101.3,50.0,0.0,0.0,-1.083969465648855,-1.0687022900763359,0.3511450381679389
1.82,0.0,0.0,0.0,10.115071898729406,7.433996154785156,4.503493322753906,-5.173869787597656,20.0,101.3,50.0,0.0,0.0,-0.5648854961832062,-0.9007633587786259,1.083969465648855
1.87,0.0,0.0,0.0,10.119496283950602,7.4699091796875,4.525041137695312,-5.111620544433594,20.0,101.3,50.0,0.0,0.0,-0.4732824427480916,-1.297709923664122,0.32061068702290074
1.92,0.0,0.0,0.0,10.147105408285015,7.4770917846679685,4.498704919433593,-5.178658190917968,20.0,101.3,50.0,0.0,0.0,-0.13740458015267176,-0.5038167938931297,2.183206106870229
1.92,0.0,0.0,0.0,10.147105408285015,7.4770917846679685,4.498704919433593,-5.178658190917968,20.0,101.3,50.0,0.0,0.0,-0.13740458015267176,-0.5038167938931297,2.183206106870229
1.97,0.0,0.0,0.0,10.256693406292088,7.5537062377929685,4.493916516113281,-5.286397265624999,20.0,101.3,50.0,0.0,0.0,-1.0076335877862594,-1.2671755725190839,1.2366412213740459
2.02,0.0,0.0,0.0,10.173143727597862,7.5345526245117185,4.489128112792969,-5.154716174316406,20.0,101.3,50.0,0.0,0.0,-0.2900763358778626,-1.3129770992366412,1.2366412213740459
2.06,0.0,0.0,0.0,10.075890662512052,7.4794859863281244,4.390965844726562,-5.128379956054687,20.0,101.3,50.0,0.0,0.0,0.3816793893129771,-0.7480916030534351,2.8702290076335877
2.11,0.0,0.0,0.0,10.044242110031265,7.417236743164062,4.446032482910156,-5.109226342773437,20.0,101.3,50.0,0.0,0.0,-1.83206106870229,-1.618320610687023,-1.2366412213740459
2.16,0.0,0.0,0.0,10.091380501840183,7.448361364746093,4.467580297851562,-5.137956762695312,20.0,101.3,50.0,0.0,0.0,-0.6564885496183206,-1.2366412213740459,0.6412213740458015
2.16,0.0,0.0,0.0,10.091380501840183,7.448361364746093,4.467580297851562,-5.137956762695312,20.0,101.3,50.0,0.0,0.0,-0.6564885496183206,-1.2366412213740459,0.6412213740458015
2.21,0.0,0.0,0.0,10.070588516381617,7.44357296142578,4.4005426513671875,-5.161898779296875,20.0,101.3,50.0,0.0,0.0,-0.4580152671755725,-0.9312977099236641,1.7251908396946565
2.26,0.0,0.0,0.0,10.089499580950218,7.44357296142578,4.479551306152343,-5.130774157714844,20.0,101.3,50.0,0.0,0.0,-1.1450381679389312,-1.297709923664122,0.13740458015267176
2.3,0.0,0.0,0.0,10.093211946698181,7.4962453979492185,4.407725256347656,-5.123591552734375,20.0,101.3,50.0,0.0,0.0,-0.7480916030534351,-1.1755725190839694,0.6717557251908397
2.35,0.0,0.0,0.0,10.118825300168222,7.50821640625,4.395754248046875,-5.166687182617188,20.0,101.3,50.0,0.0,0.0,-0.5648854961832062,-0.9770992366412213,0.8244274809160306
2.36,0.0,0.0,0.0,10.118825300168222,7.50821640625,4.395754248046875,-5.166687182617188,20.0,101.3,50.0,0.0,0.0,-0.5648854961832062,-0.9770992366412213,0.8244274809160306
2.4,0.0,0.0,0.0,10.095231290994544,7.431601953125,4.446032482910156,-5.1882349975585935,20.0,101.3,50.0,0.0,0.0,-0.5343511450381679,-1.251908396946565,0.2748091603053435
2.45,0.0,0.0,0.0,10.091587830469523,7.46272657470703,4.441244079589843,-5.140350964355468,20.0,101.3,50.0,0.0,0.0,-0.549618320610687,-1.0381679389312977,1.2061068702290076
2.5,0.0,0.0,0.0,10.136314973685304,7.5153990112304685,4.429273071289062,-5.161898779296875,20.0,101.3,50.0,0.0,0.0,-1.1755725190839694,-1.0534351145038168,0.12213740458015267
2.54,0.0,0.0,0.0,10.108667021776288,7.493851196289062,4.422090466308593,-5.145139367675781,20.0,101.3,50.0,0.0,0.0,-0.7786259541984732,-1.1450381679389312,0.5190839694656488
2.59,0.0,0.0,0.0,10.135181342708409,7.50821640625,4.438849877929687,-5.161898779296875,20.0,101.3,50.0,0.0,0.0,-0.8244274809160306,-1.0076335877862594,0.7938931297709924
2.64,0.0,0.0,0.0,10.016956346043425,7.388506323242187,4.290409374999999,-5.228936425781249,20.0,101.3,50.0,0.0,0.0,-1.5419847328244274,-1.4198473282442747,-1.450381679389313
2.69,0.0,0.0,0.0,10.120155045343289,7.5345526245117185,4.378994836425781,-5.145139367675781,20.0,101.3,50.0,0.0,0.0,0.3053435114503817,0.16793893129770993,3.114503816793893
2.71,0.0,0.0,0.0,10.120155045343289,7.5345526245117185,4.378994836425781,-5.145139367675781,20.0,101.3,50.0,0.0,0.0,0.3053435114503817,0.16793893129770993,3.114503816793893
2.74,0.0,0.0,0.0,9.494415203919003,6.988674645996094,4.505887524414062,-4.582501977539062,20.0,101.3,50.0,0.0,0.0,3.450381679389313,-4.2748091603053435,7.6183206106870225
2.78,0.0,0.0,0.0,9.853635003207978,7.46272657470703,4.132392065429687,-4.932055419921875,20.0,101.3,50.0,0.0,0.0,2.9770992366412212,-0.33587786259541985,10.13740458015267
2.83,0.0,0.0,0.0,10.157960844311612,7.6087728759765625,4.242525341796875,-5.224148022460938,20.0,101.3,50.0,0.0,0.0,0.32061068702290074,0.12213740458015267,1.7709923664122138
2.88,0.0,0.0,0.0,10.16361587684393,7.6614453125,4.266467358398438,-5.137956762695312,20.0,101.3,50.0,0.0,0.0,-0.24427480916030533,-0.24427480916030533,0.030534351145038167
2.93,0.0,0.0,0.0,10.066242573304622,7.572859851074218,4.242525341796875,-5.097255334472656,20.0,101.3,50.0,0.0,0.0,0.6106870229007634,-0.21374045801526717,1.9694656488549618
2.98,0.0,0.0,0.0,10.170882858277821,7.620743884277343,4.335899206542969,-5.154716174316406,20.0,101.3,50.0,0.0,0.0,-1.282442748091603,-1.0076335877862594,-0.3511450381679389
2.99,0.0,0.0,0.0,10.170882858277821,7.620743884277343,4.335899206542969,-5.154716174316406,20.0,101.3,50.0,0.0,0.0,-1.282442748091603,-1.0076335877862594,-0.3511450381679389
3.02,0.0,0.0,0.0,10.077811663869939,7.592013464355468,4.309562988281249,-5.035006091308594,20.0,101.3,50.0,0.0,0.0,-0.5648854961832062,-0.9923664122137404,0.9312977099236641
3.07,0.0,0.0,0.0,10.128391607112828,7.611167077636718,4.278438366699218,-5.1331683593749995,20.0,101.3,50.0,0.0,0.0,-0.5190839694656488,-1.1603053435114503,0.7633587786259542
3.12,0.0,0.0,0.0,10.093450189013886,7.56567724609375,4.2880151733398435,-5.123591552734375,20.0,101.3,50.0,0.0,0.0,-1.0229007633587786,-1.2213740458015268,0.10687022900763359
3.17,0.0,0.0,0.0,10.105928610790684,7.587225061035156,4.319139794921875,-5.090072729492187,20.0,101.3,50.0,0.0,0.0,-0.5038167938931297,-1.0229007633587786,1.1755725190839694
3.22,0.0,0.0,0.0,10.11203620311155,7.587225061035156,4.273649963378906,-5.140350964355468,20.0,101.3,50.0,0.0,0.0,-0.9312977099236641,-1.1755725190839694,0.3969465648854962
3.26,0.0,0.0,0.0,10.075918254256122,7.551312036132812,4.311957189941406,-5.090072729492187,20.0,101.3,50.0,0.0,0.0,-1.0381679389312977,-1.1450381679389312,0.5038167938931297
3.31,0.0,0.0,0.0,10.112511511741493,7.584830859375,4.304774584960938,-5.118803149414062,20.0,101.3,50.0,0.0,0.0,-0.8854961832061069,-1.1603053435114503,0.7633587786259542
3.36,0.0,0.0,0.0,10.049264114436776,7.589619262695312,4.220977526855468,-5.05655390625,20.0,101.3,50.0,0.0,0.0,-0.9770992366412213,-1.1145038167938932,0.33587786259541985
3.36,0.0,0.0,0.0,10.049264114436776,7.589619262695312,4.220977526855468,-5.05655390625,20.0,101.3,50.0,0.0,0.0,-0.9770992366412213,-1.1145038167938932,0.33587786259541985
3.41,0.0,0.0,0.0,10.090428723567388,7.563283044433593,4.273649963378906,-5.1331683593749995,20.0,101.3,50.0,0.0,0.0,-0.9312977099236641,-1.1450381679389312,0.4580152671755725
3.45,0.0,0.0,0.0,10.090428723567388,7.563283044433593,4.273649963378906,-5.1331683593749995,20.0,101.3,50.0,0.0,0.0,-0.9312977099236641,-1.1450381679389312,0.4580152671755725
3.46,0.0,0.0,0.0,10.08632632995986,7.572859851074218,4.292803576660156,-5.0948611328124995,20.0,101.3,50.0,0.0,0.0,-0.4122137404580153,-1.1908396946564885,0.7633587786259542
3.5,0.0,0.0,0.0,10.119277631395581,7.6231380859375,4.235342736816406,-5.1331683593749995,20.0,101.3,50.0,0.0,0.0,-0.6564885496183206,-0.48854961832061067,2.4122137404580153
3.55,0.0,0.0,0.0,10.125942145908029,7.639897497558593,4.292803576660156,-5.073313317871094,20.0,101.3,50.0,0.0,0.0,-0.9618320610687023,-1.4351145038167938,-0.061068702290076333
3.6,0.0,0.0,0.0,10.104412907294689,7.606378674316406,4.276044165039062,-5.0948611328124995,20.0,101.3,50.0,0.0,0.0,-1.4809160305343512,-1.099236641221374,0.1984732824427481
3.65,0.0,0.0,0.0,10.11403450292939,7.618349682617187,4.240131140136718,-5.125985754394531,20.0,101.3,50.0,0.0,0.0,-0.5343511450381679,-1.0076335877862594,1.1145038167938932
3.7,0.0,0.0,0.0,10.071571765259332,7.599196069335937,4.228160131835938,-5.080495922851562,20.0,101.3,50.0,0.0,0.0,-0.9312977099236641,-1.0076335877862594,0.5190839694656488
3.74,0.0,0.0,0.0,10.092720962377918,7.60398447265625,4.264073156738281,-5.085284326171875,20.0,101.3,50.0,0.0,0.0,-1.0076335877862594,-1.1603053435114503,0.2900763358778626
3.79,0.0,0.0,0.0,10.057964805775477,7.575254052734374,4.247313745117188,-5.073313317871094,20.0,101.3,50.0,0.0,0.0,-0.6564885496183206,-1.1603053435114503,0.7633587786259542
3.84,0.0,0.0,0.0,10.09052898972868,7.596801867675781,4.240131140136718,-5.111620544433594,20.0,101.3,50.0,0.0,0.0,-0.916030534351145,-1.0687022900763359,0.4122137404580153
3.89,0.0,0.0,0.0,10.090988837915159,7.654262707519531,4.220977526855468,-5.042188696289062,20.0,101.3,50.0,0.0,0.0,-0.8549618320610687,-1.1450381679389312,0.549618320610687
3.94,0.0,0.0,0.0,10.44214002490245,7.752424975585937,3.88818349609375,-5.815515832519531,20.0,101.3,50.0,0.0,0.0,11.725190839694656,8.80916030534351,60.274809160305345
3.98,0.0,0.0,0.0,10.030820662409068,8.17859287109375,3.555389465332031,-4.592078784179687,20.0,101.3,50.0,0.0,0.0,22.916030534351144,9.786259541984732,61.57251908396947
4.03,0.0,0.0,0.0,15.895198764794277,11.614272253417967,1.3766659545898436,-10.764330664062498,20.0,101.3,50.0,0.0,0.0,-45.12977099236641,8.473282442748092,-4.702290076335878
4.06,0.0,0.0,0.0,15.895198764794277,11.614272253417967,1.3766659545898436,-10.764330664062498,20.0,101.3,50.0,0.0,0.0,-45.12977099236641,8.473282442748092,-4.702290076335878
4.08,0.0,0.0,0.0,11.319363367093349,9.911994873046874,2.5522189697265625,-4.833893151855468,20.0,101.3,50.0,0.0,0.0,-6.67175572519084,-30.137404580152673,-65.58778625954199
4.13,0.0,0.0,0.0,10.433195188095159,8.113949426269532,3.7134067749023436,-5.406107348632812,20.0,101.3,50.0,0.0,0.0,7.358778625954199,7.969465648854962,11.618320610687023
4.17,0.0,0.0,0.0,10.433195188095159,8.113949426269532,3.7134067749023436,-5.406107348632812,20.0,101.3,50.0,0.0,0.0,7.358778625954199,7.969465648854962,11.618320610687023
4.18,0.0,0.0,0.0,10.166388648997495,7.716511950683593,4.07971962890625,-5.212177014160156,20.0,101.3,50.0,0.0,0.0,-8.854961832061068,-3.633587786259542,-20.366412213740457
4.23,0.0,0.0,0.0,8.78534250336525,6.938396411132812,3.3351229125976563,-4.2329485351562495,20.0,101.3,50.0,0.0,0.0,-0.22900763358778625,-3.7251908396946565,4.99236641221374
4.27,0.0,0.0,0.0,12.656221922542919,10.960655200195312,2.1883003173828124,-5.9376201171875,20.0,101.3,50.0,0.0,0.0,22.137404580152673,12.16793893129771,59.51145038167939
4.32,0.0,0.0,0.0,10.22801071741474,7.829039428710937,4.012681982421875,-5.216965417480468,20.0,101.3,50.0,0.0,0.0,-31.923664122137403,0.7938931297709924,-30.732824427480917
4.36,0.0,0.0,0.0,10.22801071741474,7.829039428710937,4.012681982421875,-5.216965417480468,20.0,101.3,50.0,0.0,0.0,-31.923664122137403,0.7938931297709924,-30.732824427480917
4.37,0.0,0.0,0.0,10.636468773315162,7.331045483398437,4.113238452148437,-6.517016918945312,20.0,101.3,50.0,0.0,0.0,-47.63358778625954,12.335877862595419,-23.572519083969464
4.42,0.0,0.0,0.0,9.987100497888774,7.352593298339843,3.871424084472656,-5.540182641601562,20.0,101.3,50.0,0.0,0.0,9.541984732824428,-1.0381679389312977,11.511450381679388
4.47,0.0,0.0,0.0,10.101438699494206,7.6614453125,3.6942531616210936,-5.449202978515625,20.0,101.3,50.0,0.0,0.0,5.8320610687022905,3.4198473282442747,12.229007633587786
4.51,0.0,0.0,0.0,10.206446014081413,7.75721337890625,3.6655227416992187,-5.528211633300781,20.0,101.3,50.0,0.0,0.0,18.3206106870229,-9.740458015267176,10.717557251908397
4.56,0.0,0.0,0.0,10.10220361184254,7.888894470214844,3.423708374023437,-5.3007624755859375,20.0,101.3,50.0,0.0,0.0,22.27480916030534,3.5572519083969465,50.0
4.61,0.0,0.0,0.0,10.351909476400857,8.681375219726561,2.104503259277344,-5.231330627441406,20.0,101.3,50.0,0.0,0.0,-8.13740458015267,8.732824427480915,39.29770992366412
4.66,0.0,0.0,0.0,11.430319423867386,9.03332286376953,2.5953145996093747,-6.505045910644531,20.0,101.3,50.0,0.0,0.0,-16.99236641221374,7.175572519083969,-2.4732824427480917
4.71,0.0,0.0,0.0,10.611325671647686,8.054094384765625,3.318363500976562,-6.059724401855468,20.0,101.3,50.0,0.0,0.0,-4.183206106870229,-7.557251908396947,-22.045801526717558
4.75,0.0,0.0,0.0,10.611325671647686,8.054094384765625,3.318363500976562,-6.059724401855468,20.0,101.3,50.0,0.0,0.0,-4.183206106870229,-7.557251908396947,-22.045801526717558
4.75,0.0,0.0,0.0,10.07407996691412,7.989450939941406,3.373430139160156,-5.125985754394531,20.0,101.3,50.0,0.0,0.0,45.38931297709924,-17.282442748091604,-29.053435114503817
4.8,0.0,0.0,0.0,10.10457884026016,8.09479581298828,3.5601778686523438,-4.8889597900390624,20.0,101.3,50.0,0.0,0.0,2.900763358778626,9.938931297709924,6.763358778625954
4.85,0.0,0.0,0.0,10.14630744149598,8.180987072753906,3.306392492675781,-5.008669873046875,20.0,101.3,50.0,0.0,0.0,-0.6412213740458015,-3.2061068702290076,6.442748091603053
4.9,0.0,0.0,0.0,9.975454649040566,7.991845141601562,3.4261025756835934,-4.8889597900390624,20.0,101.3,50.0,0.0,0.0,-11.312977099236642,-1.0076335877862594,17.87786259541985
4.95,0.0,0.0,0.0,10.236460926174761,8.360552197265624,2.849099975585937,-5.173869787597656,20.0,101.3,50.0,0.0,0.0,6.305343511450381,-1.0381679389312977,26.106870229007633
4.99,0.0,0.0,0.0,10.084744019358709,8.276755139160155,3.071760729980469,-4.874594580078124,20.0,101.3,50.0,0.0,0.0,11.541984732824428,0.13740458015267176,4.809160305343512
5.04,0.0,0.0,0.0,9.788512464085036,8.180987072753906,2.808398547363281,-4.582501977539062,20.0,101.3,50.0,0.0,0.0,5.297709923664122,5.923664122137405,-3.1908396946564888
5.09,0.0,0.0,0.0,10.116691678258878,8.336610180664062,3.2561142578125,-4.716577270507813,20.0,101.3,50.0,0.0,0.0,30.259541984732824,-7.1603053435114505,-9.32824427480916
5.14,0.0,0.0,0.0,10.060276976809183,8.441955053710936,2.9831752685546875,-4.587290380859375,20.0,101.3,50.0,0.0,0.0,7.190839694656488,-5.969465648854962,-5.862595419847328
5.14,0.0,0.0,0.0,10.060276976809183,8.441955053710936,2.9831752685546875,-4.587290380859375,20.0,101.3,50.0,0.0,0.0,7.190839694656488,-5.969465648854962,-5.862595419847328
5.19,0.0,0.0,0.0,10.074007134014423,8.24802471923828,3.3446997192382812,-4.7189714721679685,20.0,101.3,50.0,0.0,0.0,8.885496183206106,-7.801526717557252,-1.6793893129770991
5.23,0.0,0.0,0.0,10.08128383917655,8.458714465332031,3.318363500976562,-4.367023828124999,20.0,101.3,50.0,0.0,0.0,3.6946564885496183,-8.366412213740459,-4.2748091603053435
5.28,0.0,0.0,0.0,10.035208792547813,8.394071020507813,3.3207577026367185,-4.383783239746093,20.0,101.3,50.0,0.0,0.0,8.122137404580153,-9.954198473282442,-6.916030534351145
5.33,0.0,0.0,0.0,9.950869237328991,8.334215979003906,3.35188232421875,-4.280832568359375,20.0,101.3,50.0,0.0,0.0,-1.5267175572519085,-4.519083969465649,0.9007633587786259
5.35,0.0,0.0,0.0,9.922259468848898,8.300697155761718,3.380612744140625,-4.256890551757812,20.0,101.3,50.0,0.0,0.0,-5.175572519083969,-1.9389312977099236,2.030534351145038
5.36,0.0,0.0,0.0,9.922259468848898,8.300697155761718,3.380612744140625,-4.256890551757812,20.0,101.3,50.0,0.0,0.0,-5.175572519083969,-1.9389312977099236,2.030534351145038
5.36,0.0,0.0,0.0,9.922259468848898,8.300697155761718,3.380612744140625,-4.256890551757812,20.0,101.3,50.0,0.0,0.0,-5.175572519083969,-1.9389312977099236,2.030534351145038
5.37,0.0,0.0,0.0,10.074800870419631,8.451531860351562,3.3973721557617185,-4.304774584960938,20.0,101.3,50.0,0.0,0.0,-3.8473282442748094,-0.9923664122137404,1.083969465648855
5.38,0.0,0.0,0.0,10.065579714020954,8.410830432128906,3.3542765258789062,-4.395754248046875,20.0,101.3,50.0,0.0,0.0,-1.297709923664122,-1.5114503816793894,-0.04580152671755725
5.38,0.0,0.0,0.0,10.065579714020954,8.410830432128906,3.3542765258789062,-4.395754248046875,20.0,101.3,50.0,0.0,0.0,-1.297709923664122,-1.5114503816793894,-0.04580152671755725
5.38,0.0,0.0,0.0,10.065579714020954,8.410830432128906,3.3542765258789062,-4.395754248046875,28.343732786318288,101.28050374523185,47.65341280955193,0.0,0.0,-1.297709923664122,-1.5114503816793894,-0.04580152671755725
5.39,0.0,0.0,0.0,10.09549503659687,8.415618835449218,3.440467785644531,-4.388571643066406,28.343732786318288,101.28050374523185,47.65341280955193,0.0,0.0,0.22900763358778625,-2.015267175572519,-0.7786259541984732
5.4,0.0,0.0,0.0,10.039644963539462,8.384494213867187,3.383006945800781,-4.364629626464843,28.343732786318288,101.28050374523185,47.65341280955193,0.0,0.0,0.061068702290076333,-3.9236641221374047,-0.8244274809160306
5.41,0.0,0.0,0.0,9.79632248993275,8.224082702636718,3.1794998046874996,-4.2688615600585935,28.343732786318288,101.28050374523185,47.65341280955193,0.0,0.0,-0.9312977099236641,-4.717557251908397,-0.8702290076335878
5.43,0.0,0.0,0.0,9.872601952190388,8.21690009765625,3.385401147460937,-4.299986181640625,28.343732786318288,101.28050374523185,47.65341280955193,0.0,0.0,-0.8702290076335878,-4.717557251908397,-1.4351145038167938
5.43,0.0,0.0,0.0,9.872601952190388,8.21690009765625,3.385401147460937,-4.299986181640625,28.343732786318288,101.28050374523185,47.65341280955193,0.0,0.0,-0.8702290076335878,-4.717557251908397,-1.4351145038167938
5.44,0.0,0.0,0.0,9.940568734474176,8.276755139160155,3.438073583984375,-4.299986181640625,28.343732786318288,101.28050374523185,47.65341280955193,0.0,0.0,-0.9312977099236641,-5.923664122137405,-1.5877862595419847
5.45,0.0,0.0,0.0,9.89255096145218,8.288726147460936,3.2632968627929686,-4.302380383300781,28.343732786318288,101.28050374523185,47.65341280955193,0.0,0.0,-1.9083969465648856,-6.5038167938931295,-2.1068702290076335
5.46,0.0,0.0,0.0,9.89255096145218,8.288726147460936,3.2632968627929686,-4.302380383300781,28.343732786318288,101.28050374523185,47.65341280955193,0.0,0.0,-1.9083969465648856,-6.5038167938931295,-2.1068702290076335
5.46,0.0,0.0,0.0,10.073088142423822,8.427589843749999,3.356670727539062,-4.378994836425781,28.343732786318288,101.28050374523185,47.65341280955193,0.0,0.0,-3.099236641221374,-5.1603053435114505,-1.7251908396946565
5.47,0.0,0.0,0.0,10.13161674723991,8.497021691894531,3.323151904296875,-4.405331054687499,28.343732786318288,101.28050374523185,47.65341280955193,0.0,0.0,-2.7938931297709924,-2.2290076335877864,-1.4351145038167938
5.47,0.0,0.0,0.0,10.13161674723991,8.497021691894531,3.323151904296875,-4.405331054687499,28.343732786318288,101.28050374523185,47.65341280955193,0.0,0.0,-2.7938931297709924,-2.2290076335877864,-1.4351145038167938
5.49,0.0,0.0,0.0,10.13161674723991,8.497021691894531,3.323151904296875,-4.405331054687499,28.343732786318288,101.28050374523185,47.65341280955193,0.0,0.0,-2.7938931297709924,-2.2290076335877864,-1.4351145038167938
5.49,0.0,0.0,0.0,10.185774949903012,8.556876733398436,3.375824340820312,-4.374206433105469,28.343732786318288,101.28050374523185,47.65341280955193,0.0,0.0,-1.8778625954198473,0.0,-0.24427480916030533
5.49,-0.08542792312779657,0.0,0.0,10.185774949903012,8.556876733398436,3.375824340820312,-4.374206433105469,28.36890430673957,101.28152940299277,47.66298909421778,0.0,0.0,-1.8778625954198473,0.0,-0.24427480916030533
5.5,-0.08542792312779657,0.0,0.0,10.158281365249415,8.465897070312499,3.4620156005859375,-4.4196962646484375,28.36890430673957,101.28152940299277,47.66298909421778,0.0,0.0,-1.5725190839694656,0.6412213740458015,1.0381679389312977
5.51,-0.08542792312779657,0.0,0.0,10.175731107589433,8.384494213867187,3.6391865234374996,-4.472368701171875,28.36890430673957,101.28152940299277,47.66298909421778,0.0,0.0,0.3511450381679389,0.13740458015267176,1.4351145038167938
5.52,-0.08542792312779657,0.0,0.0,10.145533989367177,8.413224633789062,3.4668040039062498,-4.486733911132812,28.36890430673957,101.28152940299277,47.66298909421778,0.0,0.0,-0.48854961832061067,-3.0229007633587788,1.7404580152671756
5.52,-0.08542792312779657,0.0,0.0,10.145533989367177,8.413224633789062,3.4668040039062498,-4.486733911132812,28.36890430673957,101.28152940299277,47.66298909421778,0.0,0.0,-0.48854961832061067,-3.0229007633587788,1.7404580152671756
5.53,-0.08542792312779657,0.0,0.0,10.159078673642874,8.468291271972657,3.380612744140625,-4.479551306152343,28.36890430673957,101.28152940299277,47.66298909421778,0.0,0.0,0.732824427480916,-6.1679389312977095,1.2366412213740459
5.55,-0.08542792312779657,0.0,0.0,10.14738785936738,8.501810095214843,3.239354846191406,-4.493916516113281,28.36890430673957,101.28152940299277,47.66298909421778,0.0,0.0,1.8931297709923665,-8.335877862595419,0.8854961832061069
5.56,-0.08542792312779657,0.0,0.0,10.051415756136024,8.410830432128906,3.392583752441406,-4.333505004882812,28.36890430673957,101.28152940299277,47.66298909421778,0.0,0.0,1.786259541984733,-5.557251908396947,0.6564885496183206
5.56,-0.08542792312779657,0.0,0.0,10.051415756136024,8.410830432128906,3.392583752441406,-4.333505004882812,28.36890430673957,101.28152940299277,47.66298909421778,0.0,0.0,1.786259541984733,-5.557251908396947,0.6564885496183206
5.57,-0.08542792312779657,0.0,0.0,10.078242231939033,8.40843623046875,3.5242648437499997,-4.295197778320312,28.36890430673957,101.28152940299277,47.66298909421778,0.0,0.0,2.3053435114503817,-2.7786259541984735,0.4732824427480916
5.57,-0.08542792312779657,0.0,0.0,10.078242231939033,8.40843623046875,3.5242648437499997,-4.295197778320312,28.36890430673957,101.28152940299277,47.66298909421778,0.0,0.0,2.3053435114503817,-2.7786259541984735,0.4732824427480916
5.58,-0.08542792312779657,0.0,0.0,10.047278035470061,8.444349255371094,3.4356793823242184,-4.223371728515625,28.36890430673957,101.28152940299277,47.66298909421778,0.0,0.0,2.381679389312977,-1.3893129770992367,0.7786259541984732
5.59,-0.08542792312779657,0.0,0.0,9.961279933658272,8.353369592285155,3.4428619873046875,-4.1946413085937495,28.36890430673957,101.28152940299277,47.66298909421778,0.0,0.0,1.5725190839694656,-0.9312977099236641,1.4198473282442747
5.6,-0.060482702195852056,2.4945220931945045,0.0,9.961279933658272,8.353369592285155,3.4428619873046875,-4.1946413085937495,28.35505996964348,101.28122990684702,47.629310711885175,0.0,0.0,1.5725190839694656,-0.9312977099236641,1.4198473282442747
5.61,-0.060482702195852056,0.0,0.0,9.95963171337165,8.37012900390625,3.327940307617187,-4.2497079467773435,28.35505996964348,101.28122990684702,47.629310711885175,0.0,0.0,-0.183206106870229,-0.6564885496183206,1.5267175572519085
5.62,-0.060482702195852056,0.0,0.0,10.062042587644351,8.413224633789062,3.3782185424804685,-4.364629626464843,28.35505996964348,101.28122990684702,47.629310711885175,0.0,0.0,-1.083969465648855,0.8091603053435115,1.6641221374045803
5.62,-0.060482702195852056,0.0,0.0,10.062042587644351,8.413224633789062,3.3782185424804685,-4.364629626464843,28.35505996964348,101.28122990684702,47.629310711885175,0.0,0.0,-1.083969465648855,0.8091603053435115,1.6641221374045803
5.63,-0.060482702195852056,0.0,0.0,9.942751681262143,8.226476904296874,3.450044592285156,-4.390965844726562,28.35505996964348,101.28122990684702,47.629310711885175,0.0,0.0,-1.4809160305343512,1.251908396946565,2.2442748091603053
5.64,-0.060482702195852056,0.0,0.0,9.838338632478592,8.262389929199218,3.342305517578125,-4.165910888671875,28.35505996964348,101.28122990684702,47.629310711885175,0.0,0.0,-2.351145038167939,0.04580152671755725,2.2900763358778624
5.65,-0.060482702195852056,0.0,0.0,9.912502904993282,8.298302954101562,3.3638533325195312,-4.2521021484374995,28.35505996964348,101.28122990684702,47.629310711885175,0.0,0.0,-0.4122137404580153,-0.13740458015267176,0.9770992366412213
5.66,-0.060482702195852056,0.0,0.0,9.912502904993282,8.298302954101562,3.3638533325195312,-4.2521021484374995,28.35505996964348,101.28122990684702,47.629310711885175,0.0,0.0,-0.4122137404580153,-0.13740458015267176,0.9770992366412213
5.67,-0.060482702195852056,0.0,0.0,10.070451622311323,8.374917407226562,3.414131567382812,-4.429273071289062,28.35505996964348,101.28122990684702,47.629310711885175,0.0,0.0,1.7251908396946565,0.015267175572519083,-0.015267175572519083
5.67,-0.060482702195852056,0.0,0.0,10.070451622311323,8.374917407226562,3.414131567382812,-4.429273071289062,28.35505996964348,101.28122990684702,47.629310711885175,0.0,0.0,1.7251908396946565,0.015267175572519083,-0.015267175572519083
5.68,-0.060482702195852056,0.0,0.0,10.080855391198057,8.465897070312499,3.3207577026367185,-4.350264416503906,28.35505996964348,101.28122990684702,47.629310711885175,0.0,0.0,2.366412213740458,-0.9312977099236641,-0.44274809160305345
5.69,-0.060482702195852056,0.0,0.0,10.083436038587063,8.456320263671875,3.380612744140625,-4.328716601562499,28.35505996964348,101.28122990684702,47.629310711885175,0.0,0.0,0.7022900763358778,-0.732824427480916,-0.12213740458015267
5.7,-0.060482702195852056,0.0,0.0,10.006283064488956,8.40843623046875,3.3710359375,-4.2497079467773435,28.35505996964348,101.28122990684702,47.629310711885175,0.0,0.0,0.5954198473282443,0.3969465648854962,0.13740458015267176
5.71,-0.060482702195852056,0.0,0.0,10.02009207044337,8.389282617187499,3.337517114257812,-4.3454760131835934,28.35505996964348,101.28122990684702,47.629310711885175,0.0,0.0,1.4961832061068703,1.0229007633587786,0.366412213740458
5.71,-0.04165772648498711,0.0,0.0,10.02009207044337,8.389282617187499,3.337517114257812,-4.3454760131835934,28.3245395066906,101.28100389177823,47.619060288051266,0.0,0.0,1.4961832061068703,1.0229007633587786,0.366412213740458
5.71,-0.04165772648498711,0.0,0.0,10.02009207044337,8.389282617187499,3.337517114257812,-4.3454760131835934,28.3245395066906,101.28100389177823,47.619060288051266,0.0,0.0,1.4961832061068703,1.0229007633587786,0.366412213740458
5.73,-0.04165772648498711,0.0,0.0,10.004149219050984,8.355763793945313,3.35188232421875,-4.3622354248046875,28.3245395066906,101.28100389177823,47.619060288051266,0.0,0.0,1.7709923664122138,1.3893129770992367,0.21374045801526717
5.74,-0.04165772648498711,0.0,0.0,10.119432557981321,8.475473876953124,3.4093431640625,-4.352658618164062,28.3245395066906,101.28100389177823,47.619060288051266,0.0,0.0,1.0381679389312977,2.0610687022900764,0.2748091603053435
5.75,-0.04165772648498711,0.0,0.0,10.082284806919457,8.429984045410155,3.4811692138671875,-4.297591979980469,28.3245395066906,101.28100389177823,47.619060288051266,0.0,0.0,-0.48854961832061067,1.7709923664122138,0.8549618320610687
5.76,-0.04165772648498711,0.0,0.0,10.082284806919457,8.429984045410155,3.4811692138671875,-4.297591979980469,28.3245395066906,101.28100389177823,47.619060288051266,0.0,0.0,-0.48854961832061067,1.7709923664122138,0.8549618320610687
5.76,-0.04165772648498711,0.0,0.0,10.112208529871458,8.410830432128906,3.4644098022460934,-4.417302062988281,28.3245395066906,101.28100389177823,47.619060288051266,0.0,0.0,-0.5343511450381679,0.8396946564885496,0.8702290076335878
5.81,-0.04165772648498711,0.0,0.0,10.106767198590155,8.420407238769531,3.3782185424804685,-4.453215087890625,28.3245395066906,101.28100389177823,47.619060288051266,0.0,0.0,-2.2748091603053435,-1.0076335877862594,1.6946564885496183
5.86,-0.04165772648498711,0.0,0.0,9.923945376101155,8.32463917236328,3.392583752441406,-4.204218115234375,28.3245395066906,101.28100389177823,47.619060288051266,0.0,0.0,-3.5114503816793894,0.22900763358778625,2.8396946564885495
5.91,-0.04165772648498711,0.0,0.0,10.035611772406886,8.367734802246094,3.4093431640625,-4.367023828124999,28.3245395066906,101.28100389177823,47.619060288051266,0.0,0.0,-3.9083969465648853,-1.3587786259541985,2.3053435114503817
5.95,-0.04165772648498711,0.0,0.0,10.231428279108417,8.564059338378906,3.3638533325195312,-4.474762902832031,28.3245395066906,101.28100389177823,47.619060288051266,0.0,0.0,0.2595419847328244,0.366412213740458,-0.44274809160305345
6.0,-0.04165772648498711,0.0,0.0,10.005598186649214,8.341398583984375,3.3638533325195312,-4.383783239746093,28.3245395066906,101.28100389177823,47.619060288051266,0.0,0.0,-0.8854961832061069,-0.32061068702290074,1.2366412213740459
6.05,-0.04165772648498711,0.0,0.0,10.080499427203836,8.406042028808594,3.3159692993164063,-4.467580297851562,28.3245395066906,101.28100389177823,47.619060288051266,0.0,0.0,-0.4122137404580153,-0.7480916030534351,-0.4580152671755725
6.1,-0.04165772648498711,0.0,0.0,10.075333691356594,8.427589843749999,3.287238879394531,-4.436455676269531,28.3245395066906,101.28100389177823,47.619060288051266,0.0,0.0,1.2061068702290076,-0.2595419847328244,0.9312977099236641
6.15,-0.04165772648498711,0.0,0.0,10.121281014540948,8.473079675292968,3.2920272827148436,-4.450820886230469,28.3245395066906,101.28100389177823,47.619060288051266,0.0,0.0,-1.5572519083969465,-0.6106870229007634,-0.061068702290076333
6.19,-0.04165772648498711,0.0,0.0,10.035017721317963,8.372523205566406,3.3710359375,-4.386177441406249,28.3245395066906,101.28100389177823,47.619060288051266,0.0,0.0,-4.809160305343512,-0.9618320610687023,1.297709923664122
6.21,-0.03501065081632282,0.33235378343322175,0.0,10.035017721317963,8.372523205566406,3.3710359375,-4.386177441406249,28.174139849546737,101.28092408623422,47.56173875868633,0.0,0.0,-4.809160305343512,-0.9618320610687023,1.297709923664122
6.21,-0.03501065081632282,0.33235378343322175,0.0,10.035017721317963,8.372523205566406,3.3710359375,-4.386177441406249,28.174139849546737,101.28092408623422,47.56173875868633,0.0,0.0,-4.809160305343512,-0.9618320610687023,1.297709923664122
6.24,-0.03501065081632282,0.0,0.0,10.046550592516116,8.350975390624999,3.35188232421875,-4.467580297851562,28.174139849546737,101.28092408623422,47.56173875868633,0.0,0.0,-7.877862595419847,1.6946564885496183,3.2213740458015265
6.29,-0.03501065081632282,0.0,0.0,9.859173597220034,8.188169677734374,3.0550013183593747,-4.563348364257812,28.174139849546737,101.28092408623422,47.56173875868633,0.0,0.0,-14.732824427480915,5.068702290076335,4.305343511450381
6.34,-0.03501065081632282,0.0,0.0,10.12731963391166,8.434772448730468,3.268085266113281,-4.553771557617187,28.174139849546737,101.28092408623422,47.56173875868633,0.0,0.0,-6.412213740458015,5.847328244274809,7.1603053435114505
6.36,-0.03501065081632282,0.0,0.0,10.12731963391166,8.434772448730468,3.268085266113281,-4.553771557617187,28.174139849546737,101.28092408623422,47.56173875868633,0.0,0.0,-6.412213740458015,5.847328244274809,7.1603053435114505
6.39,-0.03501065081632282,0.0,0.0,9.989356195052073,8.152256652832031,3.3255461059570313,-4.7189714721679685,28.174139849546737,101.28092408623422,47.56173875868633,0.0,0.0,-22.03053435114504,11.84732824427481,14.732824427480915
6.43,-0.03501065081632282,0.0,0.0,10.153254003345838,8.350975390624999,2.9281086303710935,-4.977545251464844,28.174139849546737,101.28092408623422,47.56173875868633,0.0,0.0,-12.473282442748092,3.6793893129770994,18.946564885496183
6.48,-0.03501065081632282,0.0,0.0,10.183031661984424,8.398859423828124,2.877830395507812,-4.987122058105468,28.174139849546737,101.28092408623422,47.56173875868633,0.0,0.0,6.458015267175573,-5.267175572519084,-1.786259541984733
6.53,-0.03501065081632282,0.0,0.0,10.327707107108251,8.556876733398436,2.844311572265625,-5.035006091308594,28.174139849546737,101.28092408623422,47.56173875868633,0.0,0.0,4.030534351145038,-5.129770992366412,-3.404580152671756
6.58,-0.03501065081632282,0.0,0.0,9.9795213428785,8.310273962402343,3.0693665283203124,-4.594472985839843,28.174139849546737,101.28092408623422,47.56173875868633,0.0,0.0,11.251908396946565,-3.5267175572519083,3.618320610687023
6.63,-0.03501065081632282,0.0,0.0,10.069275850454519,8.463502868652343,2.9448680419921875,-4.592078784179687,28.174139849546737,101.28092408623422,47.56173875868633,0.0,0.0,4.656488549618321,-4.229007633587786,-2.1068702290076335
6.68,-0.03501065081632282,0.0,0.0,9.969909358935805,8.312668164062499,2.942473840332031,-4.651933825683593,28.174139849546737,101.28092408623422,47.56173875868633,0.0,0.0,0.2900763358778626,-3.435114503816794,1.083969465648855
6.72,-0.03501065081632282,0.0,0.0,9.935341782908,8.346186987304687,2.96881005859375,-4.498704919433593,28.174139849546737,101.28092408623422,47.56173875868633,0.0,0.0,-1.5419847328244274,-3.068702290076336,0.0
6.77,-0.03501065081632282,0.0,0.0,10.146697252581756,8.441955053710936,3.009511486816406,-4.7572786987304685,28.174139849546737,101.28092408623422,47.56173875868633,0.0,0.0,-2.885496183206107,-0.6412213740458015,-0.5038167938931297
6.77,-0.17381875962820592,0.0,0.0,10.146697252581756,8.441955053710936,3.009511486816406,-4.7572786987304685,28.289614041065214,101.28259064269517,47.5125392310547,0.0,0.0,-2.885496183206107,-0.6412213740458015,-0.5038167938931297
6.82,-0.17381875962820592,0.0,0.0,10.12193031558466,8.461108666992187,2.9735984619140625,-4.69263525390625,28.289614041065214,101.28259064269517,47.5125392310547,0.0,0.0,-3.3893129770992365,-0.8396946564885496,-2.4427480916030535
6.87,-0.17381875962820592,0.0,0.0,10.09706601134945,8.487444885253906,2.978386865234375,-4.587290380859375,28.289614041065214,101.28259064269517,47.5125392310547,0.0,0.0,-2.732824427480916,-0.7480916030534351,-1.5419847328244274
6.92,-0.17381875962820592,0.0,0.0,10.034517605853424,8.353369592285155,2.940079638671875,-4.7189714721679685,28.289614041065214,101.28259064269517,47.5125392310547,0.0,0.0,-1.8931297709923665,0.44274809160305345,0.16793893129770993
6.96,-0.17381875962820592,0.0,0.0,10.277478395230254,8.583212951660157,2.8419173706054686,-4.886565588378906,28.289614041065214,101.28259064269517,47.5125392310547,0.0,0.0,1.1297709923664123,-0.33587786259541985,1.3587786259541985
7.01,-0.17381875962820592,0.0,0.0,9.821341182519806,8.145074047851562,3.0909143432617188,-4.534617944335937,28.289614041065214,101.28259064269517,47.5125392310547,0.0,0.0,1.0229007633587786,-1.786259541984733,4.748091603053435
7.06,-0.17381875962820592,0.0,0.0,9.890325057970438,8.279149340820313,3.0166940917968748,-4.491522314453125,28.289614041065214,101.28259064269517,47.5125392310547,0.0,0.0,0.6717557251908397,-2.183206106870229,-0.48854961832061067
7.11,-0.17381875962820592,0.0,0.0,10.12919353188289,8.437166650390624,2.920926025390625,-4.783614916992187,28.289614041065214,101.28259064269517,47.5125392310547,0.0,0.0,-0.5343511450381679,-1.1603053435114503,-0.3969465648854962
7.16,-0.17381875962820592,0.0,0.0,9.990675632144969,8.305485559082031,3.057395520019531,-4.6351744140625,28.289614041065214,101.28259064269517,47.5125392310547,0.0,0.0,-0.366412213740458,-0.9618320610687023,0.183206106870229
7.2,-0.17381875962820592,0.0,0.0,10.10474845780853,8.437166650390624,2.9831752685546875,-4.69263525390625,28.289614041065214,101.28259064269517,47.5125392310547,0.0,0.0,-0.8091603053435115,-1.1450381679389312,-0.8244274809160306
7.25,-0.17381875962820592,0.0,0.0,9.95610502153941,8.307879760742187,2.987963671875,-4.601655590820312,28.289614041065214,101.28259064269517,47.5125392310547,0.0,0.0,-0.6412213740458015,-0.5190839694656488,-0.030534351145038167
7.29,-0.17381875962820592,0.0,0.0,9.95610502153941,8.307879760742187,2.987963671875,-4.601655590820312,28.289614041065214,101.28259064269517,47.5125392310547,0.0,0.0,-0.6412213740458015,-0.5190839694656488,-0.030534351145038167
7.3,-0.17381875962820592,0.0,0.0,10.091056151796254,8.444349255371094,2.9951462768554684,-4.642357019042969,28.289614041065214,101.28259064269517,47.5125392310547,0.0,0.0,-3.145038167938931,-1.6488549618320612,-1.9389312977099236
7.35,-0.17381875962820592,0.0,0.0,10.473651552272965,8.757989672851561,2.8036101440429686,-5.013458276367187,28.289614041065214,101.28259064269517,47.5125392310547,0.0,0.0,-0.9923664122137404,-0.8854961832061069,0.0
7.36,-0.17381875962820592,0.0,0.0,10.473651552272965,8.757989672851561,2.8036101440429686,-5.013458276367187,28.289614041065214,101.28259064269517,47.5125392310547,0.0,0.0,-0.9923664122137404,-0.8854961832061069,0.0
7.4,-0.17381875962820592,0.0,0.0,9.724719308554453,8.142679846191406,3.1268273681640624,-4.299986181640625,28.289614041065214,101.28259064269517,47.5125392310547,0.0,0.0,-0.030534351145038167,-0.24427480916030533,5.175572519083969
7.44,-0.17381875962820592,0.0,0.0,10.231608399277285,8.508992700195313,3.0621839233398433,-4.786009118652344,28.289614041065214,101.28259064269517,47.5125392310547,0.0,0.0,0.5343511450381679,0.7786259541984732,-0.2595419847328244
7.49,-0.17381875962820592,0.0,0.0,10.03363784483408,8.379705810546875,2.923320227050781,-4.680664245605469,28.289614041065214,101.28259064269517,47.5125392310547,0.0,0.0,-1.8625954198473282,3.7251908396946565,0.15267175572519084
7.54,-0.17381875962820592,0.0,0.0,10.364738182997831,8.813056311035156,2.952050646972656,-4.587290380859375,28.289614041065214,101.28259064269517,47.5125392310547,0.0,0.0,-2.198473282442748,2.183206106870229,-1.450381679389313
7.54,-0.19995857414186524,0.0,0.0,10.364738182997831,8.813056311035156,2.952050646972656,-4.587290380859375,28.347823157911442,101.28290448474667,47.488002119353936,0.0,0.0,-2.198473282442748,2.183206106870229,-1.450381679389313
7.59,-0.19995857414186524,0.0,0.0,10.133098117193793,8.432378247070313,2.952050646972656,-4.781220715332031,28.347823157911442,101.28290448474667,47.488002119353936,0.0,0.0,0.3511450381679389,-0.8702290076335878,-3.7099236641221376
7.64,-0.19995857414186524,0.0,0.0,10.021917381953727,8.339004382324218,2.9759926635742184,-4.695029455566406,28.347823157911442,101.28290448474667,47.488002119353936,0.0,0.0,0.916030534351145,-2.3206106870229006,-1.9236641221374047
7.68,-0.19995857414186524,0.0,0.0,10.113184331439712,8.329427575683594,3.0909143432617188,-4.8314989501953125,28.347823157911442,101.28290448474667,47.488002119353936,0.0,0.0,-0.9007633587786259,-1.83206106870229,-2.8702290076335877
7.73,-0.19995857414186524,0.0,0.0,10.043194258834621,8.422801440429687,2.916137622070312,-4.627991809082031,28.347823157911442,101.28290448474667,47.488002119353936,0.0,0.0,-0.12213740458015267,-2.6717557251908395,-3.404580152671756
7.78,-0.19995857414186524,0.0,0.0,10.016316836441783,8.106766821289062,3.0023288818359375,-5.058948107910156,28.347823157911442,101.28290448474667,47.488002119353936,0.0,0.0,-0.16793893129770993,-2.5343511450381677,-12.01526717557252
7.83,-0.19995857414186524,0.0,0.0,10.092801043579076,8.40125362548828,3.430890979003906,-4.417302062988281,28.347823157911442,101.28290448474667,47.488002119353936,0.0,0.0,2.33587786259542,-1.6793893129770991,-14.305343511450381
7.88,-0.19995857414186524,0.0,0.0,10.330633927914603,8.336610180664062,3.5482068603515624,-4.963180041503906,28.347823157911442,101.28290448474667,47.488002119353936,0.0,0.0,-25.083969465648856,-0.2900763358778626,-59.48091603053435
7.92,-0.19995857414186524,0.0,0.0,11.09201718060568,8.892064965820312,3.718195178222656,-5.4899044067382805,28.347823157911442,101.28290448474667,47.488002119353936,0.0,0.0,10.916030534351146,1.2366412213740459,9.923664122137405
7.97,-0.19995857414186524,0.0,0.0,10.027050896960963,7.970297326660156,3.488351818847656,-4.984727856445312,28.347823157911442,101.28290448474667,47.488002119353936,0.0,0.0,-16.9618320610687,0.48854961832061067,-2.351145038167939
8.02,-0.19995857414186524,0.0,0.0,10.666233154789413,8.781931689453124,3.181894006347656,-5.149927770996094,28.347823157911442,101.28290448474667,47.488002119353936,0.0,0.0,6.580152671755725,3.572519083969466,7.740458015267175
8.07,-0.19995857414186524,0.0,0.0,10.043701361694962,8.027758166503906,3.6367923217773437,-4.817133740234374,28.347823157911442,101.28290448474667,47.488002119353936,0.0,0.0,0.10687022900763359,-3.4198473282442747,-5.00763358778626
8.09,-0.12933067561609723,3.531394926288476,0.0,10.043701361694962,8.027758166503906,3.6367923217773437,-4.817133740234374,28.28143330331295,101.28205650790947,47.44772464547949,0.0,0.0,0.10687022900763359,-3.4198473282442747,-5.00763358778626
8.12,-0.12933067561609723,0.0,0.0,10.161099031357256,8.192958081054687,3.414131567382812,-4.946420629882812,28.28143330331295,101.28205650790947,47.44772464547949,0.0,0.0,-1.0687022900763359,1.1450381679389312,2.6412213740458017
8.16,-0.12933067561609723,0.0,0.0,10.022255408488903,8.09479581298828,3.4428619873046875,-4.802768530273437,28.28143330331295,101.28205650790947,47.44772464547949,0.0,0.0,-0.48854961832061067,-2.4427480916030535,-2.4580152671755724
8.21,-0.12933067561609723,0.0,0.0,10.19961520314892,8.257601525878906,3.42849677734375,-4.908113403320312,28.28143330331295,101.28205650790947,47.44772464547949,0.0,0.0,-1.251908396946565,-0.7175572519083969,1.4809160305343512
8.26,-0.12933067561609723,0.0,0.0,10.065871001633996,8.169016064453125,3.438073583984375,-4.771643908691406,28.28143330331295,101.28205650790947,47.44772464547949,0.0,0.0,-1.3587786259541985,-1.4961832061068703,-0.2900763358778626
8.31,-0.12933067561609723,0.0,0.0,10.085176280789982,8.161833459472655,3.3351229125976563,-4.896142395019531,28.28143330331295,101.28205650790947,47.44772464547949,0.0,0.0,-1.0076335877862594,-1.8625954198473282,-0.13740458015267176
8.36,-0.12933067561609723,0.0,0.0,10.109853237737823,8.176198669433592,3.4428619873046875,-4.848258361816406,28.28143330331295,101.28205650790947,47.44772464547949,0.0,0.0,-1.2213740458015268,-1.6946564885496183,-0.030534351145038167
8.36,-0.12933067561609723,0.0,0.0,10.109853237737823,8.176198669433592,3.4428619873046875,-4.848258361816406,28.28143330331295,101.28205650790947,47.44772464547949,0.0,0.0,-1.2213740458015268,-1.6946564885496183,-0.030534351145038167
8.37,-0.12933067561609723,0.0,0.0,10.109853237737823,8.176198669433592,3.4428619873046875,-4.848258361816406,28.28143330331295,101.28205650790947,47.44772464547949,0.0,0.0,-1.2213740458015268,-1.6946564885496183,-0.030534351145038167
8.4,-0.12933067561609723,0.0,0.0,10.08505606793222,8.154650854492187,3.438073583984375,-4.836287353515624,28.28143330331295,101.28205650790947,47.44772464547949,0.0,0.0,-1.099236641221374,-1.251908396946565,0.15267175572519084
8.45,-0.12933067561609723,0.0,0.0,10.089478843987857,8.157045056152343,3.42849677734375,-4.848258361816406,28.28143330331295,101.28205650790947,47.44772464547949,0.0,0.0,-1.465648854961832,-1.0381679389312977,-0.5190839694656488
8.5,-0.12933067561609723,0.0,0.0,10.105363652082566,8.185775476074218,3.423708374023437,-4.836287353515624,28.28143330331295,101.28205650790947,47.44772464547949,0.0,0.0,-0.9465648854961832,-1.4045801526717556,0.030534351145038167
8.55,-0.12933067561609723,0.0,0.0,10.054571804621776,8.111555224609374,3.423708374023437,-4.855440966796874,28.28143330331295,101.28205650790947,47.44772464547949,0.0,0.0,-1.1297709923664123,-1.2213740458015268,0.21374045801526717
8.6,-0.12933067561609723,0.0,0.0,10.105872173062622,8.190563879394531,3.4069489624023435,-4.841075756835937,28.28143330331295,101.28205650790947,47.44772464547949,0.0,0.0,-0.8549618320610687,-1.083969465648855,0.16793893129770993
8.64,-0.12933067561609723,0.0,0.0,10.087576543522994,8.128314636230469,3.4093431640625,-4.905719201660156,28.28143330331295,101.28205650790947,47.44772464547949,0.0,0.0,-1.0381679389312977,-1.1145038167938932,-0.13740458015267176
8.69,-0.12933067561609723,0.0,0.0,10.11927593200489,8.166621862792969,3.411737365722656,-4.905719201660156,28.28143330331295,101.28205650790947,47.44772464547949,0.0,0.0,-1.0534351145038168,-1.3282442748091603,0.030534351145038167
8.74,-0.12933067561609723,0.0,0.0,10.13463328605945,8.197746484375,3.4644098022460934,-4.848258361816406,28.28143330331295,101.28205650790947,47.44772464547949,0.0,0.0,-0.9465648854961832,-1.1755725190839694,0.2748091603053435
8.79,-0.12933067561609723,0.0,0.0,10.104495448648885,8.188169677734374,3.394977954101562,-4.8506525634765625,28.28143330331295,101.28205650790947,47.44772464547949,0.0,0.0,-0.7175572519083969,-1.1450381679389312,0.015267175572519083
8.83,-0.142488863389012,-0.3289546943228618,0.0,10.104495448648885,8.188169677734374,3.394977954101562,-4.8506525634765625,28.424281676253305,101.28221448808313,47.42112813908023,0.0,0.0,-0.7175572519083969,-1.1450381679389312,0.015267175572519083
8.84,-0.142488863389012,0.0,0.0,10.098081025146923,8.149862451171874,3.4572271972656248,-4.857835168457031,28.424281676253305,101.28221448808313,47.42112813908023,0.0,0.0,-1.4809160305343512,-1.2671755725190839,-0.10687022900763359
8.88,-0.142488863389012,0.0,0.0,10.164349322429269,8.202534887695313,3.4524387939453125,-4.910507604980468,28.424281676253305,101.28221448808313,47.42112813908023,0.0,0.0,-0.7938931297709924,-1.2671755725190839,0.0916030534351145
8.93,-0.142488863389012,0.0,0.0,10.099277849655154,8.157045056152343,3.4572271972656248,-4.848258361816406,28.424281676253305,101.28221448808313,47.42112813908023,0.0,0.0,-0.9770992366412213,-1.3129770992366412,0.07633587786259542
8.98,-0.142488863389012,0.0,0.0,10.066159433554901,8.13310303955078,3.440467785644531,-4.8314989501953125,28.424281676253305,101.28221448808313,47.42112813908023,0.0,0.0,-0.9312977099236641,-1.1908396946564885,0.12213740458015267
9.03,-0.142488863389012,0.0,0.0,10.064588760489855,8.128314636230469,3.4572271972656248,-4.824316345214844,28.424281676253305,101.28221448808313,47.42112813908023,0.0,0.0,-1.083969465648855,-1.0381679389312977,-0.6412213740458015
9.08,-0.142488863389012,0.0,0.0,10.08531070150844,8.169016064453125,3.404554760742187,-4.836287353515624,28.424281676253305,101.28221448808313,47.42112813908023,0.0,0.0,-1.2213740458015268,-1.3129770992366412,-0.16793893129770993
9.13,-0.142488863389012,0.0,0.0,10.101219656061941,8.12113203125,3.4356793823242184,-4.927267016601562,28.424281676253305,101.28221448808313,47.42112813908023,0.0,0.0,-0.6717557251908397,-1.1450381679389312,0.16793893129770993
9.17,-0.142488863389012,0.0,0.0,10.087915495181925,8.109161022949218,3.469198205566406,-4.896142395019531,28.424281676253305,101.28221448808313,47.42112813908023,0.0,0.0,-1.2671755725190839,-1.3129770992366412,-0.3816793893129771
9.22,-0.142488863389012,0.0,0.0,10.090581252715197,8.123526232910155,3.450044592285156,-4.891353991699218,28.424281676253305,101.28221448808313,47.42112813908023,0.0,0.0,-1.099236641221374,-1.251908396946565,0.15267175572519084
9.27,-0.142488863389012,0.0,0.0,10.110541258600138,8.142679846191406,3.418919970703125,-4.92247861328125,28.424281676253305,101.28221448808313,47.42112813908023,0.0,0.0,-0.8549618320610687,-1.1908396946564885,0.015267175572519083
9.32,-0.142488863389012,0.0,0.0,10.084644832498391,8.130708837890625,3.4428619873046875,-4.872200378417968,28.424281676253305,101.28221448808313,47.42112813908023,0.0,0.0,-0.8091603053435115,-1.297709923664122,0.16793893129770993
9.36,-0.142488863389012,0.0,0.0,10.084644832498391,8.130708837890625,3.4428619873046875,-4.872200378417968,28.424281676253305,101.28221448808313,47.42112813908023,0.0,0.0,-0.8091603053435115,-1.297709923664122,0.16793893129770993
9.37,-0.142488863389012,0.0,0.0,10.095332077264207,8.123526232910155,3.4332851806640625,-4.912901806640625,28.424281676253305,101.28221448808313,47.42112813908023,0.0,0.0,-0.6870229007633588,-1.1450381679389312,0.0916030534351145
9.41,-0.142488863389012,0.0,0.0,10.074704146031673,8.116343627929687,3.447650390625,-4.872200378417968,28.424281676253305,101.28221448808313,47.42112813908023,0.0,0.0,-0.8396946564885496,-1.282442748091603,0.22900763358778625
9.44,-0.142488863389012,0.0,0.0,10.074704146031673,8.116343627929687,3.447650390625,-4.872200378417968,28.424281676253305,101.28221448808313,47.42112813908023,0.0,0.0,-0.8396946564885496,-1.282442748091603,0.22900763358778625
9.46,-0.142488863389012,0.0,0.0,10.084984735275384,8.130708837890625,3.440467785644531,-4.874594580078124,28.424281676253305,101.28221448808313,47.42112813908023,0.0,0.0,-0.8549618320610687,-1.2366412213740459,0.1984732824427481
9.51,-0.142488863389012,0.0,0.0,10.104595291585188,8.145074047851562,3.4907460205078125,-4.855440966796874,28.424281676253305,101.28221448808313,47.42112813908023,0.0,0.0,-0.9465648854961832,-0.9923664122137404,-0.0916030534351145
9.55,-0.23291508533265892,-2.2606555485911204,0.0,10.104595291585188,8.145074047851562,3.4907460205078125,-4.855440966796874,28.363240714035783,101.28330017112037,47.38153885991976,0.0,0.0,-0.9465648854961832,-0.9923664122137404,-0.0916030534351145
9.56,-0.23291508533265892,0.0,0.0,10.100690186905355,8.161833459472655,3.450044592285156,-4.848258361816406,28.363240714035783,101.28330017112037,47.38153885991976,0.0,0.0,-1.0076335877862594,-1.2213740458015268,0.16793893129770993
9.61,-0.23291508533265892,0.0,0.0,10.8606774721292,8.717288244628906,3.284844677734375,-5.5832782714843745,28.363240714035783,101.28330017112037,47.38153885991976,0.0,0.0,-1.0381679389312977,-6.427480916030534,2.381679389312977
9.65,-0.23291508533265892,0.0,0.0,9.803068272557521,8.027758166503906,3.220201232910156,-4.613626599121093,28.363240714035783,101.28330017112037,47.38153885991976,0.0,0.0,2.1374045801526718,-5.7251908396946565,-4.244274809160306
9.7,-0.23291508533265892,0.0,0.0,10.232492426793089,8.228871105957031,3.450044592285156,-5.008669873046875,28.363240714035783,101.28330017112037,47.38153885991976,0.0,0.0,-2.3053435114503817,1.9083969465648856,5.633587786259542
9.75,-0.23291508533265892,0.0,0.0,10.072725359504885,8.090007409667969,3.459621398925781,-4.903325,28.363240714035783,101.28330017112037,47.38153885991976,0.0,0.0,-1.1603053435114503,-3.3435114503816794,-3.099236641221374
9.8,-0.23291508533265892,0.0,0.0,10.136033345099737,8.142679846191406,3.5003228271484375,-4.917690209960937,28.363240714035783,101.28330017112037,47.38153885991976,0.0,0.0,-1.2366412213740459,-1.465648854961832,0.916030534351145
9.85,-0.23291508533265892,0.0,0.0,10.095793410020958,8.135497241210937,3.4165257690429685,-4.905719201660156,28.363240714035783,101.28330017112037,47.38153885991976,0.0,0.0,-1.3587786259541985,-1.5572519083969465,0.015267175572519083
9.89,-0.23291508533265892,0.0,0.0,10.108152119901094,8.166621862792969,3.4165257690429685,-4.879382983398437,28.363240714035783,101.28330017112037,47.38153885991976,0.0,0.0,-0.732824427480916,-1.6488549618320612,-0.3969465648854962
9.94,-0.23291508533265892,0.0,0.0,10.14171727817009,8.173804467773436,3.4093431640625,-4.9416322265625,28.363240714035783,101.28330017112037,47.38153885991976,0.0,0.0,-1.0076335877862594,-1.0076335877862594,0.4732824427480916
9.99,-0.23291508533265892,0.0,0.0,10.10019020180538,8.152256652832031,3.4811692138671875,-4.841075756835937,28.363240714035783,101.28330017112037,47.38153885991976,0.0,0.0,-0.9465648854961832,-1.1450381679389312,0.366412213740458
10.04,-0.23291508533265892,0.0,0.0,10.123980734743762,8.169016064453125,3.440467785644531,-4.891353991699218,28.363240714035783,101.28330017112037,47.38153885991976,0.0,0.0,-0.732824427480916,-1.083969465648855,0.07633587786259542
10.09,-0.23291508533265892,0.0,0.0,10.115841730087713,8.130708837890625,3.4763808105468748,-4.912901806640625,28.363240714035783,101.28330017112037,47.38153885991976,0.0,0.0,-0.8854961832061069,-3.114503816793893,-6.6106870229007635
10.11,-0.1927200709439214,2.0097507194369184,0.0,10.115841730087713,8.130708837890625,3.4763808105468748,-4.912901806640625,28.325168794482853,101.28281757713863,47.33211703094616,0.0,0.0,-0.8854961832061069,-3.114503816793893,-6.6106870229007635
10.13,-0.1927200709439214,0.0,0.0,10.516630470677677,8.508992700195313,3.3877953491210935,-5.1690813842773435,28.325168794482853,101.28281757713863,47.33211703094616,0.0,0.0,6.183206106870229,-2.427480916030534,11.893129770992367
10.18,-0.1927200709439214,0.0,0.0,9.906355039292402,8.238447912597655,2.839523168945312,-4.7117888671875,28.325168794482853,101.28281757713863,47.33211703094616,0.0,0.0,-4.854961832061068,-1.2061068702290076,-0.8091603053435115
10.23,-0.1927200709439214,0.0,0.0,9.902888386196818,8.039729174804688,3.0980969482421874,-4.881777185058594,28.325168794482853,101.28281757713863,47.33211703094616,0.0,0.0,-3.572519083969466,-17.00763358778626,-37.16030534351145
10.28,-0.1927200709439214,0.0,0.0,9.539020427152195,7.42441934814453,3.459621398925781,-4.8889597900390624,28.325168794482853,101.28281757713863,47.33211703094616,0.0,0.0,-6.687022900763359,-0.7175572519083969,-12.396946564885496
10.33,-0.1927200709439214,0.0,0.0,9.825511917716112,8.183381274414062,2.882618798828125,-4.611232397460937,28.325168794482853,101.28281757713863,47.33211703094616,0.0,0.0,23.541984732824428,-0.44274809160305345,33.038167938931295
10.36,-0.1927200709439214,0.0,0.0,9.825511917716112,8.183381274414062,2.882618798828125,-4.611232397460937,28.325168794482853,101.28281757713863,47.33211703094616,0.0,0.0,23.541984732824428,-0.44274809160305345,33.038167938931295
10.37,-0.1927200709439214,0.0,0.0,9.825057730482122,7.975085729980468,3.5984850952148437,-4.469974499511719,28.325168794482853,101.28281757713863,47.33211703094616,0.0,0.0,-9.129770992366412,-11.251908396946565,-28.061068702290076
10.42,-0.1927200709439214,0.0,0.0,10.085366685930353,8.008604553222655,4.103661645507812,-4.553771557617187,28.325168794482853,101.28281757713863,47.33211703094616,0.0,0.0,-5.1603053435114505,-10.442748091603054,-23.450381679389313
10.47,-0.1927200709439214,0.0,0.0,9.98594648355071,8.154650854492187,3.3399113159179685,-4.697423657226563,28.325168794482853,101.28281757713863,47.33211703094616,0.0,0.0,5.114503816793893,1.2671755725190839,11.664122137404581
10.5,-0.1927200709439214,0.0,0.0,9.98594648355071,8.154650854492187,3.3399113159179685,-4.697423657226563,28.325168794482853,101.28281757713863,47.33211703094616,0.0,0.0,5.114503816793893,1.2671755725190839,11.664122137404581
10.52,-0.1927200709439214,0.0,0.0,10.126878982664785,8.001421948242188,3.864241479492187,-4.857835168457031,28.325168794482853,101.28281757713863,47.33211703094616,0.0,0.0,-6.748091603053435,-0.5038167938931297,-7.129770992366412
10.57,-0.1927200709439214,0.0,0.0,10.247350362584209,8.89924757080078,2.4013842651367185,-4.477157104492187,28.325168794482853,101.28281757713863,47.33211703094616,0.0,0.0,-13.221374045801527,11.526717557251908,-25.633587786259543
10.61,-0.1927200709439214,0.0,0.0,9.876178486356917,6.679822631835937,5.250484240722656,-5.035006091308594,28.325168794482853,101.28281757713863,47.33211703094616,0.0,0.0,-1.5725190839694656,-22.137404580152673,-29.72519083969466
10.66,-0.1927200709439214,0.0,0.0,10.33591470256226,8.748412866210938,3.1268273681640624,-4.529829541015625,28.325168794482853,101.28281757713863,47.33211703094616,0.0,0.0,38.732824427480914,20.717557251908396,98.50381679389314
10.71,-0.1927200709439214,0.0,0.0,10.385452373685023,8.24802471923828,4.019864587402344,-4.8650177734375,28.325168794482853,101.28281757713863,47.33211703094616,0.0,0.0,-18.27480916030534,-3.267175572519084,-27.61832061068702
10.76,-0.1927200709439214,0.0,0.0,9.775890395000992,7.400477331542969,4.110844250488281,-4.8889597900390624,28.325168794482853,101.28281757713863,47.33211703094616,0.0,0.0,-7.740458015267175,-0.4122137404580153,-10.351145038167939
10.81,-0.1927200709439214,0.0,0.0,10.563866179543385,8.518569506835936,3.957615344238281,-4.833893151855468,28.325168794482853,101.28281757713863,47.33211703094616,0.0,0.0,20.671755725190838,4.0458015267175576,39.32824427480916
10.84,-0.2740208637710695,-2.7100264275716603,0.0,10.563866179543385,8.518569506835936,3.957615344238281,-4.833893151855468,28.425540253226064,101.2837937019473,47.30653382835337,0.0,0.0,20.671755725190838,4.0458015267175576,39.32824427480916
10.85,-0.2740208637710695,0.0,0.0,10.152070317683656,8.240842114257813,3.5577836669921874,-4.742913488769531,28.425540253226064,101.2837937019473,47.30653382835337,0.0,0.0,-6.977099236641221,3.480916030534351,-4.122137404580153
10.9,-0.2740208637710695,0.0,0.0,9.9873306534131,7.953537915039062,3.6822821533203123,-4.7884033203125,28.425540253226064,101.2837937019473,47.30653382835337,0.0,0.0,1.0229007633587786,-0.9618320610687023,2.1374045801526718
10.95,-0.2740208637710695,0.0,0.0,10.806587442177708,8.71489404296875,3.919308117675781,-5.046977099609375,28.425540253226064,101.2837937019473,47.30653382835337,0.0,0.0,5.480916030534351,5.603053435114504,18.53435114503817
11.0,-0.2740208637710695,0.0,0.0,10.063312336912462,8.154650854492187,3.380612744140625,-4.8314989501953125,28.425540253226064,101.2837937019473,47.30653382835337,0.0,0.0,-5.099236641221374,1.9541984732824427,7.893129770992366
11.05,-0.2740208637710695,0.0,0.0,9.954147287895315,8.724470849609375,3.0789433349609374,-3.6727053466796873,28.425540253226064,101.2837937019473,47.30653382835337,0.0,0.0,15.450381679389313,0.9618320610687023,20.061068702290076
11.09,-0.2740208637710695,0.0,0.0,8.963423545793134,3.6487633300781246,5.801150622558594,-5.777208605957031,28.425540253226064,101.2837937019473,47.30653382835337,0.0,0.0,2.8091603053435112,-17.46564885496183,-63.17557251908397
11.14,-0.2740208637710695,0.0,0.0,10.117823131785853,8.465897070312499,3.3255461059570313,-4.431667272949219,28.425540253226064,101.2837937019473,47.30653382835337,0.0,0.0,54.0,15.038167938931299,105.6793893129771
11.19,-0.2740208637710695,0.0,0.0,10.42849521861633,8.932766394042968,2.882618798828125,-4.544194750976562,28.425540253226064,101.2837937019473,47.30653382835337,0.0,0.0,4.6106870229007635,5.404580152671755,7.9541984732824424
11.24,-0.2740208637710695,0.0,0.0,9.779962410947904,7.738059765625,3.5218706420898434,-4.833893151855468,28.425540253226064,101.2837937019473,47.30653382835337,0.0,0.0,-22.03053435114504,-9.603053435114504,-48.79389312977099
11.29,-0.2740208637710695,0.0,0.0,9.833775800913443,8.499415893554687,2.616862414550781,-4.197035510253906,28.425540253226064,101.2837937019473,47.30653382835337,0.0,0.0,21.34351145038168,7.9541984732824424,48.01526717557252
11.34,-0.2740208637710695,0.0,0.0,10.003667042728043,8.520963708496094,2.9544448486328125,-4.328716601562499,28.425540253226064,101.2837937019473,47.30653382835337,0.0,0.0,-5.816793893129771,0.5343511450381679,-3.0229007633587788
11.36,-0.2740208637710695,0.0,0.0,10.003667042728043,8.520963708496094,2.9544448486328125,-4.328716601562499,28.425540253226064,101.2837937019473,47.30653382835337,0.0,0.0,-5.816793893129771,0.5343511450381679,-3.0229007633587788
11.38,-0.2740208637710695,0.0,0.0,9.930103132563138,8.161833459472655,3.4093431640625,-4.513070129394531,28.425540253226064,101.2837937019473,47.30653382835337,0.0,0.0,-2.4427480916030535,2.687022900763359,4.427480916030534
11.43,-0.2740208637710695,0.0,0.0,10.120696523027766,8.535328918457031,2.8562825805664063,-4.627991809082031,28.425540253226064,101.2837937019473,47.30653382835337,0.0,0.0,4.748091603053435,-0.2900763358778626,9.572519083969466
11.48,-0.2740208637710695,0.0,0.0,9.936171691711579,8.377311608886718,2.674323254394531,-4.6255976074218745,28.425540253226064,101.2837937019473,47.30653382835337,0.0,0.0,-4.488549618320611,3.618320610687023,3.068702290076336
11.53,-0.2740208637710695,0.0,0.0,10.533016400387368,8.927977990722656,2.913743420410156,-4.76924970703125,28.425540253226064,101.2837937019473,47.30653382835337,0.0,0.0,-3.7709923664122136,-4.931297709923665,-10.122137404580153
11.58,-0.2740208637710695,0.0,0.0,10.332027955129018,8.705317236328124,2.731784094238281,-4.848258361816406,28.425540253226064,101.2837937019473,47.30653382835337,0.0,0.0,4.8396946564885495,9.526717557251908,23.84732824427481
11.58,-0.1665323855188272,0.0,0.0,10.332027955129018,8.705317236328124,2.731784094238281,-4.848258361816406,28.266959692173987,101.28250316055458,47.24832840620262,0.0,0.0,4.8396946564885495,9.526717557251908,23.84732824427481
11.58,-0.1665323855188272,0.0,0.0,10.332027955129018,8.705317236328124,2.731784094238281,-4.848258361816406,28.266959692173987,101.28250316055458,47.24832840620262,0.0,0.0,4.8396946564885495,9.526717557251908,23.84732824427481
11.62,-0.1665323855188272,0.0,0.0,10.126594544413255,8.552088330078124,3.0741549316406247,-4.467580297851562,28.266959692173987,101.28250316055458,47.24832840620262,0.0,0.0,-2.2900763358778624,-8.961832061068701,-13.374045801526718
11.67,-0.1665323855188272,0.0,0.0,10.15876382047991,8.497021691894531,3.019088293457031,-4.678270043945313,28.266959692173987,101.28250316055458,47.24832840620262,0.0,0.0,-7.221374045801527,-3.2213740458015265,-11.679389312977099
11.72,-0.1665323855188272,0.0,0.0,10.140665367519908,8.51617530517578,2.882618798828125,-4.690241052246093,28.266959692173987,101.28250316055458,47.24832840620262,0.0,0.0,2.763358778625954,2.0,10.65648854961832
11.77,-0.1665323855188272,0.0,0.0,10.034083733354425,8.449137658691406,2.8610709838867185,-4.594472985839843,28.266959692173987,101.28250316055458,47.24832840620262,0.0,0.0,-0.1984732824427481,-3.145038167938931,-3.145038167938931
11.82,-0.1665323855188272,0.0,0.0,10.00837407226985,8.384494213867187,3.1100679565429687,-4.493916516113281,28.266959692173987,101.28250316055458,47.24832840620262,0.0,0.0,1.0687022900763359,3.1603053435114505,8.15267175572519
11.86,-0.1665323855188272,0.0,0.0,10.290373711968412,8.702923034667968,2.882618798828125,-4.673481640625,28.266959692173987,101.28250316055458,47.24832840620262,0.0,0.0,3.068702290076336,-0.6412213740458015,8.198473282442748
11.91,-0.1665323855188272,0.0,0.0,11.63273626296657,9.315838659667968,4.2521021484374995,-5.518634826660156,28.266959692173987,101.28250316055458,47.24832840620262,0.0,0.0,-12.82442748091603,-12.458015267175572,-34.2442748091603
11.96,-0.1665323855188272,0.0,0.0,10.56068457040848,8.695740429687499,3.227383837890625,-5.049371301269531,28.266959692173987,101.28250316055458,47.24832840620262,0.0,0.0,5.038167938931298,2.717557251908397,19.068702290076335
12.01,-0.1665323855188272,0.0,0.0,10.169435457755066,8.765172277832031,2.683900061035156,-4.402936853027343,28.266959692173987,101.28250316055458,47.24832840620262,0.0,0.0,7.297709923664122,6.916030534351145,27.480916030534353
12.06,-0.1665323855188272,0.0,0.0,10.11824095005873,8.621520178222656,2.6958710693359373,-4.5585599609375,28.266959692173987,101.28250316055458,47.24832840620262,0.0,0.0,-5.816793893129771,-8.595419847328245,-12.549618320610687
12.1,-0.1665323855188272,0.0,0.0,10.126976340788227,8.518569506835936,3.0310593017578125,-4.560954162597656,28.266959692173987,101.28250316055458,47.24832840620262,0.0,0.0,-10.213740458015268,-7.129770992366412,-19.84732824427481
12.14,-0.1335287951573938,0.8250897590358162,0.0,10.126976340788227,8.518569506835936,3.0310593017578125,-4.560954162597656,28.39848085215999,101.28210691145897,47.220295016542245,0.0,0.0,-10.213740458015268,-7.129770992366412,-19.84732824427481
12.15,-0.1335287951573938,0.0,0.0,9.979918530116656,8.350975390624999,3.0023288818359375,-4.565742565917969,28.39848085215999,101.28210691145897,47.220295016542245,0.0,0.0,-2.3206106870229006,-2.198473282442748,-2.9618320610687023
12.2,-0.1335287951573938,0.0,0.0,10.189046342526582,8.590395556640624,2.9927520751953125,-4.589684582519531,28.39848085215999,101.28210691145897,47.220295016542245,0.0,0.0,3.1297709923664123,1.282442748091603,9.374045801526718
12.25,-0.1335287951573938,0.0,0.0,10.133343341240073,8.504204296874999,3.0238766967773434,-4.6064439941406246,28.39848085215999,101.28210691145897,47.220295016542245,0.0,0.0,-2.1374045801526718,-0.10687022900763359,-0.42748091603053434
12.3,-0.1335287951573938,0.0,0.0,10.248848842171066,8.619125976562499,2.9544448486328125,-4.69263525390625,28.39848085215999,101.28210691145897,47.220295016542245,0.0,0.0,-0.4732824427480916,-1.4961832061068703,0.8549618320610687
12.34,-0.1335287951573938,0.0,0.0,10.089886189663284,8.441955053710936,3.0310593017578125,-4.620809204101562,28.39848085215999,101.28210691145897,47.220295016542245,0.0,0.0,-1.9236641221374047,-3.3435114503816794,-4.854961832061068
12.36,-0.1335287951573938,0.0,0.0,10.089886189663284,8.441955053710936,3.0310593017578125,-4.620809204101562,28.39848085215999,101.28210691145897,47.220295016542245,0.0,0.0,-1.9236641221374047,-3.3435114503816794,-4.854961832061068
12.39,-0.1335287951573938,0.0,0.0,10.177476970822216,8.525752111816406,3.210624426269531,-4.537012145996093,28.39848085215999,101.28210691145897,47.220295016542245,0.0,0.0,-1.7251908396946565,-3.480916030534351,-5.083969465648855
12.44,-0.1335287951573938,0.0,0.0,10.124339416321282,8.504204296874999,3.0119056884765625,-4.594472985839843,28.39848085215999,101.28210691145897,47.220295016542245,0.0,0.0,1.9694656488549618,-2.1526717557251906,2.946564885496183
12.49,-0.1335287951573938,0.0,0.0,10.046187992455929,8.470685473632813,2.999934680175781,-4.491522314453125,28.39848085215999,101.28210691145897,47.220295016542245,0.0,0.0,-0.12213740458015267,-1.4045801526717556,0.9465648854961832
12.54,-0.1335287951573938,0.0,0.0,10.068867101668591,8.394071020507813,3.114856359863281,-4.6064439941406246,28.39848085215999,101.28210691145897,47.220295016542245,0.0,0.0,-3.5877862595419847,-2.122137404580153,-5.435114503816794
12.58,-0.1335287951573938,0.0,0.0,10.08280415658972,8.470685473632813,3.057395520019531,-4.534617944335937,28.39848085215999,101.28210691145897,47.220295016542245,0.0,0.0,1.6946564885496183,-0.4122137404580153,4.8396946564885495
12.63,-0.1335287951573938,0.0,0.0,10.054336916981919,8.480262280273436,2.9640216552734375,-4.515464331054687,28.39848085215999,101.28210691145897,47.220295016542245,0.0,0.0,-2.9618320610687023,1.1908396946564885,1.3435114503816794
12.66,-0.1335287951573938,0.0,0.0,10.054336916981919,8.480262280273436,2.9640216552734375,-4.515464331054687,28.39848085215999,101.28210691145897,47.220295016542245,0.0,0.0,-2.9618320610687023,1.1908396946564885,1.3435114503816794
12.68,-0.1335287951573938,0.0,0.0,10.018303903756673,8.377311608886718,3.0238766967773434,-4.587290380859375,28.39848085215999,101.28210691145897,47.220295016542245,0.0,0.0,-1.4961832061068703,-2.427480916030534,-2.198473282442748
12.73,-0.1335287951573938,0.0,0.0,10.082192418433717,8.506598498535157,3.0119056884765625,-4.496310717773437,28.39848085215999,101.28210691145897,47.220295016542245,0.0,0.0,3.2977099236641223,-2.1526717557251906,5.129770992366412
12.78,-0.1335287951573938,0.0,0.0,10.096978867545495,8.463502868652343,3.038241906738281,-4.592078784179687,28.39848085215999,101.28210691145897,47.220295016542245,0.0,0.0,-4.0,-1.5725190839694656,-4.595419847328245
12.82,-0.1335287951573938,0.0,0.0,10.06500081537397,8.403647827148436,3.1675287963867187,-4.544194750976562,28.39848085215999,101.28210691145897,47.220295016542245,0.0,0.0,-0.48854961832061067,-1.816793893129771,-0.7175572519083969
12.87,-0.1335287951573938,0.0,0.0,9.978970768697565,8.403647827148436,2.9855694702148434,-4.477157104492187,28.39848085215999,101.28210691145897,47.220295016542245,0.0,0.0,0.5954198473282443,-0.33587786259541985,3.877862595419847
12.89,-0.02166273456500445,5.59330302961909,0.0,9.978970768697565,8.403647827148436,2.9855694702148434,-4.477157104492187,28.446936064434702,101.28076382979226,47.22002670792179,0.0,0.0,0.5954198473282443,-0.33587786259541985,3.877862595419847
12.92,-0.02166273456500445,0.0,0.0,10.145327198165722,8.518569506835936,3.0597897216796874,-4.582501977539062,28.446936064434702,101.28076382979226,47.22002670792179,0.0,0.0,-4.137404580152672,-0.549618320610687,-3.3587786259541983
12.97,-0.02166273456500445,0.0,0.0,10.210041750361015,8.513781103515624,3.1316157714843746,-4.685452648925781,28.446936064434702,101.28076382979226,47.22002670792179,0.0,0.0,-4.0458015267175576,0.4122137404580153,-1.1145038167938932
13.02,-0.02166273456500445,0.0,0.0,10.209182448905963,8.504204296874999,3.1794998046874996,-4.668693237304687,28.446936064434702,101.28076382979226,47.22002670792179,0.0,0.0,1.2366412213740459,-3.618320610687023,-0.4732824427480916
13.06,-0.02166273456500445,0.0,0.0,10.238924536643983,8.528146313476562,3.1220389648437497,-4.728548278808593,28.446936064434702,101.28076382979226,47.22002670792179,0.0,0.0,-2.427480916030534,-0.0916030534351145,0.6564885496183206
13.11,-0.02166273456500445,0.0,0.0,10.080949213480418,8.398859423828124,3.1268273681640624,-4.61602080078125,28.446936064434702,101.28076382979226,47.22002670792179,0.0,0.0,-1.6946564885496183,-3.0076335877862594,-3.877862595419847
13.16,-0.02166273456500445,0.0,0.0,10.419802456824707,8.700528833007812,3.2249896362304686,-4.740519287109374,28.446936064434702,101.28076382979226,47.22002670792179,0.0,0.0,-2.2595419847328246,-1.7099236641221374,-0.6106870229007634
13.21,-0.02166273456500445,0.0,0.0,10.037059053533921,8.28633194580078,3.27526787109375,-4.620809204101562,28.446936064434702,101.28076382979226,47.22002670792179,0.0,0.0,-6.030534351145038,-3.480916030534351,-11.419847328244275
13.26,-0.02166273456500445,0.0,0.0,10.140344007123742,8.432378247070313,3.220201232910156,-4.620809204101562,28.446936064434702,101.28076382979226,47.22002670792179,0.0,0.0,4.793893129770993,0.732824427480916,9.969465648854962
13.3,-0.02166273456500445,0.0,0.0,10.126231697156774,8.456320263671875,3.086125939941406,-4.637568615722656,28.446936064434702,101.28076382979226,47.22002670792179,0.0,0.0,-1.9694656488549618,-0.3816793893129771,0.3053435114503817
13.35,-0.02166273456500445,0.0,0.0,10.027088627356171,8.169016064453125,3.469198205566406,-4.666299035644531,28.446936064434702,101.28076382979226,47.22002670792179,0.0,0.0,-5.251908396946565,-1.6488549618320612,-8.534351145038167
13.36,-0.02166273456500445,0.0,0.0,10.027088627356171,8.169016064453125,3.469198205566406,-4.666299035644531,28.446936064434702,101.28076382979226,47.22002670792179,0.0,0.0,-5.251908396946565,-1.6488549618320612,-8.534351145038167
13.4,-0.02166273456500445,0.0,0.0,9.837257777420682,8.343792785644531,2.588131994628906,-4.522646936035156,28.446936064434702,101.28076382979226,47.22002670792179,0.0,0.0,11.34351145038168,0.2748091603053435,19.17557251908397
13.45,-0.02166273456500445,0.0,0.0,10.098354062339139,8.47786807861328,2.9089550170898435,-4.651933825683593,28.446936064434702,101.28076382979226,47.22002670792179,0.0,0.0,-4.290076335877862,-3.312977099236641,-9.633587786259541
13.46,-0.15106688220118958,-12.94041476361649,0.0,10.098354062339139,8.47786807861328,2.9089550170898435,-4.651933825683593,28.34436207424369,101.28231747782142,47.16253758447618,0.0,0.0,-4.290076335877862,-3.312977099236641,-9.633587786259541
13.5,-0.15106688220118958,0.0,0.0,9.904813714888672,8.157045056152343,3.1962592163085937,-4.620809204101562,28.34436207424369,101.28231747782142,47.16253758447618,0.0,0.0,-6.732824427480916,-3.83206106870229,-12.534351145038167
13.54,-0.15106688220118958,0.0,0.0,10.093629931878354,8.434772448730468,3.0741549316406247,-4.613626599121093,28.34436207424369,101.28231747782142,47.16253758447618,0.0,0.0,7.114503816793893,0.21374045801526717,12.870229007633588
13.59,-0.15106688220118958,0.0,0.0,10.150394346357105,8.475473876953124,3.0550013183593747,-4.675875842285156,28.34436207424369,101.28231747782142,47.16253758447618,0.0,0.0,-4.320610687022901,-0.4580152671755725,-3.1908396946564888
13.64,-0.15106688220118958,0.0,0.0,10.093492214488487,8.384494213867187,3.1771056030273437,-4.6351744140625,28.34436207424369,101.28231747782142,47.16253758447618,0.0,0.0,-0.5343511450381679,-1.6641221374045803,-0.8091603053435115
13.69,-0.15106688220118958,0.0,0.0,10.113256598795612,8.441955053710936,3.1292215698242187,-4.6064439941406246,28.34436207424369,101.28231747782142,47.16253758447618,0.0,0.0,0.366412213740458,-1.1908396946564885,1.4198473282442747
13.74,-0.15106688220118958,0.0,0.0,10.028876370850213,8.379705810546875,3.1124621582031247,-4.546588952636719,28.34436207424369,101.28231747782142,47.16253758447618,0.0,0.0,-1.618320610687023,-3.053435114503817,-4.030534351145038
13.74,-0.15106688220118958,0.0,0.0,10.028876370850213,8.379705810546875,3.1124621582031247,-4.546588952636719,28.34436207424369,101.28231747782142,47.16253758447618,0.0,0.0,-1.618320610687023,-3.053435114503817,-4.030534351145038
13.79,-0.15106688220118958,0.0,0.0,10.083822027090468,8.43956085205078,3.0789433349609374,-4.580107775878906,28.34436207424369,101.28231747782142,47.16253758447618,0.0,0.0,-0.5038167938931297,-0.16793893129770993,2.4732824427480917
13.83,-0.15106688220118958,0.0,0.0,10.131721980588667,8.40125362548828,3.1842882080078123,-4.6830584472656245,28.34436207424369,101.28231747782142,47.16253758447618,0.0,0.0,0.33587786259541985,-2.015267175572519,-0.4122137404580153
13.88,-0.15106688220118958,0.0,0.0,10.185339078784247,8.528146313476562,3.19865341796875,-4.5585599609375,28.34436207424369,101.28231747782142,47.16253758447618,0.0,0.0,2.122137404580153,-5.557251908396947,-2.4580152671755724
13.93,-0.15106688220118958,0.0,0.0,10.26910799047975,8.556876733398436,3.35188232421875,-4.582501977539062,28.34436207424369,101.28231747782142,47.16253758447618,0.0,0.0,-5.557251908396947,0.732824427480916,-3.0381679389312977
13.98,-0.15106688220118958,0.0,0.0,10.03924500047172,8.365340600585936,3.1387983764648437,-4.57771357421875,28.34436207424369,101.28231747782142,47.16253758447618,0.0,0.0,-1.6030534351145038,-1.8778625954198473,-0.10687022900763359
14.03,-0.15106688220118958,0.0,0.0,10.069428130752854,8.427589843749999,3.1794998046874996,-4.50109912109375,28.34436207424369,101.28231747782142,47.16253758447618,0.0,0.0,0.549618320610687,0.4580152671755725,4.702290076335878
14.07,-0.15106688220118958,0.0,0.0,10.15205422560887,8.394071020507813,3.380612744140625,-4.601655590820312,28.34436207424369,101.28231747782142,47.16253758447618,0.0,0.0,-2.4122137404580153,-6.9465648854961835,-12.687022900763358
14.12,-0.15106688220118958,0.0,0.0,10.220681439747148,8.473079675292968,3.2249896362304686,-4.7189714721679685,28.34436207424369,101.28231747782142,47.16253758447618,0.0,0.0,-0.9312977099236641,0.6106870229007634,3.5267175572519083
14.17,-0.15106688220118958,0.0,0.0,10.107700425018981,8.377311608886718,3.2130186279296873,-4.65432802734375,28.34436207424369,101.28231747782142,47.16253758447618,0.0,0.0,-1.8473282442748091,-1.2061068702290076,-2.4885496183206106
14.2,-0.23051747029098957,-2.648352936326723,0.0,10.107700425018981,8.377311608886718,3.2130186279296873,-4.65432802734375,28.44662142011566,101.28327138454809,47.14356072468019,0.0,0.0,-1.8473282442748091,-1.2061068702290076,-2.4885496183206106
14.22,-0.23051747029098957,0.0,0.0,10.098969929938924,8.406042028808594,3.227383837890625,-4.572925170898437,28.44662142011566,101.28327138454809,47.14356072468019,0.0,0.0,-0.2900763358778626,-0.8702290076335878,1.083969465648855
14.27,-0.23051747029098957,0.0,0.0,10.107245590692816,8.437166650390624,3.2058360229492187,-4.548983154296875,28.44662142011566,101.28327138454809,47.14356072468019,0.0,0.0,-0.8091603053435115,-3.0839694656488548,-4.305343511450381
14.31,-0.23051747029098957,0.0,0.0,10.191409205586226,8.559270935058594,3.0597897216796874,-4.608838195800781,28.44662142011566,101.28327138454809,47.14356072468019,0.0,0.0,-0.5801526717557252,-1.8625954198473282,-0.4732824427480916
14.36,-0.23051747029098957,0.0,0.0,10.191409205586226,8.559270935058594,3.0597897216796874,-4.608838195800781,28.44662142011566,101.28327138454809,47.14356072468019,0.0,0.0,-0.5801526717557252,-1.8625954198473282,-0.4732824427480916
14.36,-0.23051747029098957,0.0,0.0,10.288284859598852,8.525752111816406,3.2058360229492187,-4.783614916992187,28.44662142011566,101.28327138454809,47.14356072468019,0.0,0.0,-3.312977099236641,4.854961832061068,6.5038167938931295
14.41,-0.23051747029098957,0.0,0.0,10.045600558288832,8.386888415527343,3.208230224609375,-4.503493322753906,28.44662142011566,101.28327138454809,47.14356072468019,0.0,0.0,0.6412213740458015,-7.572519083969466,-8.473282442748092
14.46,-0.23051747029098957,0.0,0.0,9.84657923443984,8.197746484375,2.987963671875,-4.563348364257812,28.44662142011566,101.28327138454809,47.14356072468019,0.0,0.0,-5.938931297709924,-2.015267175572519,-7.4961832061068705
14.51,-0.23051747029098957,0.0,0.0,10.269499280235795,8.348581188964843,3.4644098022460934,-4.874594580078124,28.44662142011566,101.28327138454809,47.14356072468019,0.0,0.0,-4.0458015267175576,-0.5954198473282443,-2.4427480916030535
14.55,-0.23051747029098957,0.0,0.0,10.122411388797254,8.358157995605469,3.3111808959960936,-4.651933825683593,28.44662142011566,101.28327138454809,47.14356072468019,0.0,0.0,1.8931297709923665,-0.7175572519083969,5.022900763358779
14.61,-0.23051747029098957,0.0,0.0,10.068491356949457,8.334215979003906,3.2704794677734372,-4.6064439941406246,28.44662142011566,101.28327138454809,47.14356072468019,0.0,0.0,-2.183206106870229,-0.32061068702290074,-0.3053435114503817
14.66,-0.23051747029098957,0.0,0.0,10.052329315964148,8.295908752441406,3.294421484375,-4.623203405761719,28.44662142011566,101.28327138454809,47.14356072468019,0.0,0.0,-0.030534351145038167,-2.122137404580153,-0.48854961832061067
14.71,-0.23051747029098957,0.0,0.0,10.109171974409099,8.348581188964843,3.3016040893554686,-4.647145422363281,28.44662142011566,101.28327138454809,47.14356072468019,0.0,0.0,-0.5954198473282443,-0.8396946564885496,0.9770992366412213
14.76,-0.23051747029098957,0.0,0.0,10.064546329554148,8.329427575683594,3.303998291015625,-4.582501977539062,28.44662142011566,101.28327138454809,47.14356072468019,0.0,0.0,-0.8854961832061069,-2.381679389312977,-1.6946564885496183
14.81,-0.23051747029098957,0.0,0.0,10.142626377957887,8.394071020507813,3.27526787109375,-4.656722229003906,28.44662142011566,101.28327138454809,47.14356072468019,0.0,0.0,-0.48854961832061067,1.0381679389312977,4.763358778625954
14.81,-0.23051747029098957,0.0,0.0,10.142626377957887,8.394071020507813,3.27526787109375,-4.656722229003906,28.44662142011566,101.28327138454809,47.14356072468019,0.0,0.0,-0.48854961832061067,1.0381679389312977,4.763358778625954
14.85,-0.23051747029098957,0.0,0.0,10.094152389013912,8.341398583984375,3.287238879394531,-4.637568615722656,28.44662142011566,101.28327138454809,47.14356072468019,0.0,0.0,-0.549618320610687,-2.6412213740458017,-1.816793893129771
14.9,-0.23051747029098957,0.0,0.0,10.13412960208588,8.350975390624999,3.287238879394531,-4.707000463867187,28.44662142011566,101.28327138454809,47.14356072468019,0.0,0.0,-1.6946564885496183,-1.0381679389312977,-0.7938931297709924
14.94,-0.058088536135956215,4.310723353875925,0.0,10.13412960208588,8.350975390624999,3.287238879394531,-4.707000463867187,28.438440668203658,101.28120116216006,47.14253173646025,0.0,0.0,-1.6946564885496183,-1.0381679389312977,-0.7938931297709924
14.95,-0.058088536135956215,0.0,0.0,10.076941371049507,8.291120349121094,3.2800562744140622,-4.695029455566406,28.438440668203658,101.28120116216006,47.14253173646025,0.0,0.0,-0.42748091603053434,-0.4732824427480916,2.4885496183206106
15.0,-0.058088536135956215,0.0,0.0,10.027074907228885,8.291120349121094,3.2561142578125,-4.604049792480469,28.438440668203658,101.28120116216006,47.14253173646025,0.0,0.0,-0.6106870229007634,-2.015267175572519,-1.0229007633587786
15.05,-0.058088536135956215,0.0,0.0,10.14494750498517,8.451531860351562,3.1842882080078123,-4.620809204101562,28.438440668203658,101.28120116216006,47.14253173646025,0.0,0.0,-0.7175572519083969,-1.2213740458015268,0.061068702290076333
15.09,-0.058088536135956215,0.0,0.0,10.114018633716134,8.382100012207031,3.2513258544921873,-4.632780212402343,28.438440668203658,101.28120116216006,47.14253173646025,0.0,0.0,-0.1984732824427481,-0.5801526717557252,2.351145038167939
15.14,-0.058088536135956215,0.0,0.0,10.083897915581023,8.389282617187499,3.2441432495117186,-4.5585599609375,28.438440668203658,101.28120116216006,47.14253173646025,0.0,0.0,-0.5038167938931297,-2.183206106870229,-1.1908396946564885
15.19,-0.058088536135956215,0.0,0.0,10.070351156248309,8.214505895996094,3.402160559082031,-4.728548278808593,28.438440668203658,101.28120116216006,47.14253173646025,0.0,0.0,-1.450381679389313,-0.4732824427480916,0.3969465648854962
15.24,-0.058088536135956215,0.0,0.0,9.515560451222601,7.637503295898437,3.1962592163085937,-4.690241052246093,28.438440668203658,101.28120116216006,47.14253173646025,0.0,0.0,0.3969465648854962,0.3053435114503817,2.549618320610687
15.29,-0.058088536135956215,0.0,0.0,10.113923134531996,8.298302954101562,3.31357509765625,-4.7381250854492185,28.438440668203658,101.28120116216006,47.14253173646025,0.0,0.0,0.7786259541984732,4.977099236641221,3.3740458015267176
15.33,-0.058088536135956215,0.0,0.0,10.033409037202336,8.307879760742187,3.2632968627929686,-4.582501977539062,28.438440668203658,101.28120116216006,47.14253173646025,0.0,0.0,0.7786259541984732,-2.351145038167939,-4.9465648854961835
15.36,-0.058088536135956215,0.0,0.0,10.033409037202336,8.307879760742187,3.2632968627929686,-4.582501977539062,28.438440668203658,101.28120116216006,47.14253173646025,0.0,0.0,0.7786259541984732,-2.351145038167939,-4.9465648854961835
15.38,-0.058088536135956215,0.0,0.0,10.037945652874527,8.310273962402343,3.2441432495117186,-4.601655590820312,28.438440668203658,101.28120116216006,47.14253173646025,0.0,0.0,-1.4961832061068703,-0.916030534351145,-2.3053435114503817
15.43,-0.058088536135956215,0.0,0.0,10.088694501009037,8.33182177734375,3.229778039550781,-4.6830584472656245,28.438440668203658,101.28120116216006,47.14253173646025,0.0,0.0,0.04580152671755725,-1.7404580152671756,0.22900763358778625
15.44,-0.058088536135956215,0.0,0.0,10.103616674797285,8.384494213867187,3.287238879394531,-4.580107775878906,28.438440668203658,101.28120116216006,47.14253173646025,0.0,0.0,-0.2595419847328244,-1.251908396946565,1.297709923664122
15.45,-0.058088536135956215,0.0,0.0,10.101267323948969,8.367734802246094,3.265691064453125,-4.620809204101562,28.438440668203658,101.28120116216006,47.14253173646025,0.0,0.0,-0.7633587786259542,-0.7633587786259542,1.465648854961832
15.46,-0.058088536135956215,0.0,0.0,10.101267323948969,8.367734802246094,3.265691064453125,-4.620809204101562,28.438440668203658,101.28120116216006,47.14253173646025,0.0,0.0,-0.7633587786259542,-0.7633587786259542,1.465648854961832
15.47,-0.058088536135956215,0.0,0.0,10.0848824246079,8.360552197265624,3.2537200561523436,-4.6064439941406246,28.438440668203658,101.28120116216006,47.14253173646025,0.0,0.0,-0.9618320610687023,-0.5038167938931297,1.1603053435114503
15.48,-0.058088536135956215,0.0,0.0,10.09502261763227,8.367734802246094,3.2632968627929686,-4.608838195800781,28.438440668203658,101.28120116216006,47.14253173646025,0.0,0.0,-1.2213740458015268,-0.33587786259541985,1.1908396946564885
15.48,-0.058088536135956215,0.0,0.0,10.09502261763227,8.367734802246094,3.2632968627929686,-4.608838195800781,28.438440668203658,101.28120116216006,47.14253173646025,0.0,0.0,-1.2213740458015268,-0.33587786259541985,1.1908396946564885
15.49,-0.1087762703906936,-5.068773425473847,0.0,10.09502261763227,8.367734802246094,3.2632968627929686,-4.608838195800781,28.460151126819984,101.2818097274781,47.10069452448495,0.0,0.0,-1.2213740458015268,-0.33587786259541985,1.1908396946564885
15.49,-0.1087762703906936,-5.068773425473847,0.0,10.144386131962175,8.40125362548828,3.265691064453125,-4.65432802734375,28.460151126819984,101.2818097274781,47.10069452448495,0.0,0.0,-1.2671755725190839,-0.42748091603053434,1.3282442748091603
15.49,-0.1087762703906936,-5.068773425473847,0.0,10.144386131962175,8.40125362548828,3.265691064453125,-4.65432802734375,28.460151126819984,101.2818097274781,47.10069452448495,0.0,0.0,-1.2671755725190839,-0.42748091603053434,1.3282442748091603
15.5,-0.1087762703906936,0.0,0.0,10.096732476434177,8.353369592285155,3.268085266113281,-4.6351744140625,28.460151126819984,101.2818097274781,47.10069452448495,0.0,0.0,-1.0229007633587786,-0.6259541984732825,1.099236641221374
15.51,-0.1087762703906936,0.0,0.0,10.13652958298664,8.379705810546875,3.2417490478515623,-4.69263525390625,28.460151126819984,101.2818097274781,47.10069452448495,0.0,0.0,-0.549618320610687,-0.8702290076335878,0.9923664122137404
15.53,-0.1087762703906936,0.0,0.0,10.100902148146645,8.386888415527343,3.2321722412109373,-4.608838195800781,28.460151126819984,101.2818097274781,47.10069452448495,0.0,0.0,-0.10687022900763359,-1.251908396946565,0.9465648854961832
15.53,-0.1087762703906936,0.0,0.0,10.100902148146645,8.386888415527343,3.2321722412109373,-4.608838195800781,28.460151126819984,101.2818097274781,47.10069452448495,0.0,0.0,-0.10687022900763359,-1.251908396946565,0.9465648854961832
15.54,-0.1087762703906936,0.0,0.0,10.070519358071413,8.341398583984375,3.2345664428710936,-4.623203405761719,28.460151126819984,101.2818097274781,47.10069452448495,0.0,0.0,-0.3511450381679389,-1.3435114503816794,0.48854961832061067
15.55,-0.1087762703906936,0.0,0.0,10.170679400475764,8.394071020507813,3.2800562744140622,-4.714183068847656,28.460151126819984,101.2818097274781,47.10069452448495,0.0,0.0,-0.5954198473282443,-1.4045801526717556,0.15267175572519084
15.56,-0.1087762703906936,0.0,0.0,10.170679400475764,8.394071020507813,3.2800562744140622,-4.714183068847656,28.460151126819984,101.2818097274781,47.10069452448495,0.0,0.0,-0.5954198473282443,-1.4045801526717556,0.15267175572519084
15.56,-0.1087762703906936,0.0,0.0,10.128635813228023,8.386888415527343,3.294421484375,-4.6255976074218745,28.460151126819984,101.2818097274781,47.10069452448495,0.0,0.0,-1.0381679389312977,-1.450381679389313,-0.2595419847328244
15.57,-0.1087762703906936,0.0,0.0,10.096406595084009,8.348581188964843,3.2417490478515623,-4.661510632324219,28.460151126819984,101.2818097274781,47.10069452448495,0.0,0.0,-1.5419847328244274,-1.5114503816793894,-0.732824427480916
15.57,-0.1087762703906936,0.0,0.0,10.096406595084009,8.348581188964843,3.2417490478515623,-4.661510632324219,28.460151126819984,101.2818097274781,47.10069452448495,0.0,0.0,-1.5419847328244274,-1.5114503816793894,-0.732824427480916
15.59,-0.1087762703906936,0.0,0.0,10.107765359172763,8.350975390624999,3.277662072753906,-4.656722229003906,28.460151126819984,101.2818097274781,47.10069452448495,0.0,0.0,-1.5572519083969465,-1.5267175572519085,-1.0534351145038168
15.6,-0.1087762703906936,0.0,0.0,10.162940473565081,8.377311608886718,3.2609026611328122,-4.740519287109374,28.460151126819984,101.2818097274781,47.10069452448495,0.0,0.0,-1.6030534351145038,-1.5725190839694656,-1.1297709923664123
15.6,-0.17270047625578933,0.0,0.0,10.162940473565081,8.377311608886718,3.2609026611328122,-4.740519287109374,28.422393810826907,101.28257721628432,47.102314623611264,0.0,0.0,-1.6030534351145038,-1.5725190839694656,-1.1297709923664123
15.61,-0.17270047625578933,0.0,0.0,10.130950526885865,8.36294639892578,3.3016040893554686,-4.668693237304687,28.422393810826907,101.28257721628432,47.102314623611264,0.0,0.0,-1.2213740458015268,-1.4961832061068703,-0.7938931297709924
15.62,-0.17270047625578933,0.0,0.0,10.124661284708937,8.391676818847655,3.2800562744140622,-4.618415002441406,28.422393810826907,101.28257721628432,47.102314623611264,0.0,0.0,-1.0076335877862594,-1.3587786259541985,-0.13740458015267176
15.62,-0.17270047625578933,0.0,0.0,10.124661284708937,8.391676818847655,3.2800562744140622,-4.618415002441406,28.422393810826907,101.28257721628432,47.102314623611264,0.0,0.0,-1.0076335877862594,-1.3587786259541985,-0.13740458015267176
15.63,-0.17270047625578933,0.0,0.0,10.084720714797255,8.346186987304687,3.2561142578125,-4.630386010742187,28.422393810826907,101.28257721628432,47.102314623611264,0.0,0.0,-0.9007633587786259,-1.099236641221374,0.5190839694656488
15.65,-0.17270047625578933,0.0,0.0,10.110826998868976,8.394071020507813,3.2513258544921873,-4.604049792480469,28.422393810826907,101.28257721628432,47.102314623611264,0.0,0.0,-0.5954198473282443,-0.7938931297709924,0.9923664122137404
15.66,-0.17270047625578933,0.0,0.0,10.207669161394396,8.458714465332031,3.2249896362304686,-4.716577270507813,28.422393810826907,101.28257721628432,47.102314623611264,0.0,0.0,-0.9312977099236641,-0.9923664122137404,0.732824427480916
15.66,-0.17270047625578933,0.0,0.0,10.207669161394396,8.458714465332031,3.2249896362304686,-4.716577270507813,28.422393810826907,101.28257721628432,47.102314623611264,0.0,0.0,-0.9312977099236641,-0.9923664122137404,0.732824427480916
15.67,-0.17270047625578933,0.0,0.0,10.192647373440632,8.403647827148436,3.306392492675781,-4.726154077148437,28.422393810826907,101.28257721628432,47.102314623611264,0.0,0.0,-0.2595419847328244,-0.6412213740458015,2.854961832061069
15.67,-0.17270047625578933,0.0,0.0,10.192647373440632,8.403647827148436,3.306392492675781,-4.726154077148437,28.422393810826907,101.28257721628432,47.102314623611264,0.0,0.0,-0.2595419847328244,-0.6412213740458015,2.854961832061069
15.68,-0.17270047625578933,0.0,0.0,10.011928155396134,8.310273962402343,3.268085266113281,-4.527435339355469,28.422393810826907,101.28257721628432,47.102314623611264,0.0,0.0,0.030534351145038167,-0.7022900763358778,1.4809160305343512
15.69,-0.17270047625578933,0.0,0.0,10.098432963603972,8.461108666992187,3.0023288818359375,-4.623203405761719,28.422393810826907,101.28257721628432,47.102314623611264,0.0,0.0,-0.5648854961832062,-2.3053435114503817,-2.122137404580153
15.71,-0.17270047625578933,0.0,0.0,10.281680415894082,8.525752111816406,3.380612744140625,-4.647145422363281,28.422393810826907,101.28257721628432,47.102314623611264,0.0,0.0,-0.4580152671755725,-6.213740458015267,-8.244274809160306
15.72,-0.17270047625578933,0.0,0.0,10.003992507132786,8.097190014648437,3.6942531616210936,-4.568136767578125,28.422393810826907,101.28257721628432,47.102314623611264,0.0,0.0,-0.916030534351145,-2.519083969465649,-3.404580152671756
15.72,-0.17270047625578933,0.0,0.0,10.003992507132786,8.097190014648437,3.6942531616210936,-4.568136767578125,28.422393810826907,101.28257721628432,47.102314623611264,0.0,0.0,-0.916030534351145,-2.519083969465649,-3.404580152671756
15.73,-0.17270047625578933,0.0,0.0,9.96741635056012,8.090007409667969,3.450044592285156,-4.690241052246093,28.422393810826907,101.28257721628432,47.102314623611264,0.0,0.0,-2.122137404580153,6.961832061068702,9.511450381679388
15.74,-0.17270047625578933,0.0,0.0,10.141612713752465,8.59278975830078,2.6910826660156246,-4.666299035644531,28.422393810826907,101.28257721628432,47.102314623611264,0.0,0.0,-1.4198473282442747,9.740458015267176,20.12213740458015
15.75,-0.17270047625578933,0.0,0.0,10.432160854487796,8.820238916015624,2.834734765625,-4.7955859252929685,28.422393810826907,101.28257721628432,47.102314623611264,0.0,0.0,0.732824427480916,-0.015267175572519083,7.694656488549619
15.76,-0.17270047625578933,0.0,0.0,10.432160854487796,8.820238916015624,2.834734765625,-4.7955859252929685,28.422393810826907,101.28257721628432,47.102314623611264,0.0,0.0,0.732824427480916,-0.015267175572519083,7.694656488549619
15.76,-0.17270047625578933,0.0,0.0,10.432160854487796,8.820238916015624,2.834734765625,-4.7955859252929685,28.422393810826907,101.28257721628432,47.102314623611264,0.0,0.0,0.732824427480916,-0.015267175572519083,7.694656488549619
15.77,-0.17270047625578933,0.0,0.0,10.300453796766654,8.398859423828124,3.5506010620117183,-4.790797521972656,28.422393810826907,101.28257721628432,47.102314623611264,0.0,0.0,2.4580152671755724,-9.038167938931299,-7.7251908396946565
15.77,-0.17270047625578933,0.0,0.0,10.300453796766654,8.398859423828124,3.5506010620117183,-4.790797521972656,28.422393810826907,101.28257721628432,47.102314623611264,0.0,0.0,2.4580152671755724,-9.038167938931299,-7.7251908396946565
15.78,-0.17270047625578933,0.0,0.0,9.935085902013512,8.204929089355469,3.3159692993164063,-4.515464331054687,28.422393810826907,101.28257721628432,47.102314623611264,0.0,0.0,1.83206106870229,-8.65648854961832,-12.534351145038167
15.79,-0.17270047625578933,0.0,0.0,9.897810066332292,8.319850769042969,3.1004911499023438,-4.374206433105469,28.422393810826907,101.28257721628432,47.102314623611264,0.0,0.0,-1.251908396946565,-6.183206106870229,-8.213740458015268
15.8,-0.17270047625578933,0.0,0.0,10.052394322675301,8.305485559082031,3.356670727539062,-4.560954162597656,28.422393810826907,101.28257721628432,47.102314623611264,0.0,0.0,-3.4198473282442747,-1.0229007633587786,-1.5267175572519085
15.81,-0.17270047625578933,0.0,0.0,10.292056128965324,8.415618835449218,3.3399113159179685,-4.893748193359374,28.422393810826907,101.28257721628432,47.102314623611264,0.0,0.0,-6.442748091603053,4.6106870229007635,1.6488549618320612
15.81,-0.17270047625578933,0.0,0.0,10.292056128965324,8.415618835449218,3.3399113159179685,-4.893748193359374,28.422393810826907,101.28257721628432,47.102314623611264,0.0,0.0,-6.442748091603053,4.6106870229007635,1.6488549618320612
15.83,-0.17270047625578933,0.0,0.0,10.125289422303497,8.391676818847655,3.189076611328125,-4.6830584472656245,28.422393810826907,101.28257721628432,47.102314623611264,0.0,0.0,-3.816793893129771,2.6717557251908395,1.1450381679389312
15.84,-0.17270047625578933,0.0,0.0,10.14837665866819,8.384494213867187,3.2800562744140622,-4.6830584472656245,28.422393810826907,101.28257721628432,47.102314623611264,0.0,0.0,-1.0076335877862594,-2.2900763358778624,-1.8625954198473282
15.85,-0.17270047625578933,0.0,0.0,10.012081594197372,8.257601525878906,3.3016040893554686,-4.599261389160156,28.422393810826907,101.28257721628432,47.102314623611264,0.0,0.0,0.6412213740458015,-4.030534351145038,-1.2061068702290076
15.86,-0.17270047625578933,0.0,0.0,10.095371823685452,8.327033374023436,3.347093920898437,-4.623203405761719,28.422393810826907,101.28257721628432,47.102314623611264,0.0,0.0,1.5114503816793894,-1.3587786259541985,3.877862595419847
15.88,-0.17270047625578933,0.0,0.0,10.095371823685452,8.327033374023436,3.347093920898437,-4.623203405761719,28.422393810826907,101.28257721628432,47.102314623611264,0.0,0.0,1.5114503816793894,-1.3587786259541985,3.877862595419847
15.91,-0.17270047625578933,0.0,0.0,10.053164962311673,8.317456567382813,3.342305517578125,-4.551377355957031,28.422393810826907,101.28257721628432,47.102314623611264,0.0,0.0,-3.3740458015267176,-3.068702290076336,-7.557251908396947
15.96,-0.17270047625578933,0.0,0.0,10.081986317991607,8.264784130859374,3.3710359375,-4.687846850585937,28.422393810826907,101.28257721628432,47.102314623611264,0.0,0.0,-2.198473282442748,-2.3053435114503817,-3.954198473282443
16.01,-0.17270047625578933,0.0,0.0,10.189977377669468,8.415618835449218,3.3590649291992185,-4.661510632324219,28.422393810826907,101.28257721628432,47.102314623611264,0.0,0.0,0.9770992366412213,0.732824427480916,5.740458015267175
16.05,-0.17270047625578933,0.0,0.0,10.318218649597094,8.588001354980468,3.2034418212890623,-4.7381250854492185,28.422393810826907,101.28257721628432,47.102314623611264,0.0,0.0,0.4732824427480916,1.6030534351145038,8.870229007633588
16.1,-0.17270047625578933,0.0,0.0,9.575922241550531,8.044517578125,2.6982652709960937,-4.438849877929687,28.422393810826907,101.28257721628432,47.102314623611264,0.0,0.0,-1.3282442748091603,-13.419847328244275,-14.259541984732824
16.15,-0.17270047625578933,0.0,0.0,9.998179826244835,8.123526232910155,3.632003918457031,-4.5585599609375,28.422393810826907,101.28257721628432,47.102314623611264,0.0,0.0,-2.6717557251908395,1.816793893129771,1.5267175572519085
16.2,-0.17270047625578933,0.0,0.0,10.04715822495951,8.291120349121094,3.411737365722656,-4.534617944335937,28.422393810826907,101.28257721628432,47.102314623611264,0.0,0.0,1.1908396946564885,1.1145038167938932,5.190839694656488
16.22,-0.0972285583218313,3.7735958966979815,0.0,10.04715822495951,8.291120349121094,3.411737365722656,-4.534617944335937,28.502628126097807,101.28167108347732,47.0805705551081,0.0,0.0,1.1908396946564885,1.1145038167938932,5.190839694656488
16.25,-0.0972285583218313,0.0,0.0,10.675994875378086,8.712499841308594,3.6655227416992187,-4.963180041503906,28.502628126097807,101.28167108347732,47.0805705551081,0.0,0.0,-5.221374045801527,-1.2061068702290076,-8.320610687022901
16.3,-0.0972285583218313,0.0,0.0,10.269793714551447,8.537723120117187,3.2034418212890623,-4.723759875488281,28.502628126097807,101.28167108347732,47.0805705551081,0.0,0.0,4.625954198473282,3.2977099236641223,16.38167938931298
16.34,-0.0972285583218313,0.0,0.0,10.09669443856095,8.398859423828124,3.2321722412109373,-4.57771357421875,28.502628126097807,101.28167108347732,47.0805705551081,0.0,0.0,-2.885496183206107,-2.885496183206107,-4.885496183206107
16.36,-0.0972285583218313,0.0,0.0,10.09669443856095,8.398859423828124,3.2321722412109373,-4.57771357421875,28.502628126097807,101.28167108347732,47.0805705551081,0.0,0.0,-2.885496183206107,-2.885496183206107,-4.885496183206107
16.39,-0.0972285583218313,0.0,0.0,10.059272394527964,8.224082702636718,3.4739866088867184,-4.6351744140625,28.502628126097807,101.28167108347732,47.0805705551081,0.0,0.0,-3.282442748091603,-5.3893129770992365,-11.297709923664122
16.44,-0.0972285583218313,0.0,0.0,10.151119712250548,8.55448253173828,3.028665100097656,-4.548983154296875,28.502628126097807,101.28167108347732,47.0805705551081,0.0,0.0,5.679389312977099,-4.534351145038168,4.396946564885496
16.49,-0.0972285583218313,0.0,0.0,9.585058891053665,8.09479581298828,2.8610709838867185,-4.261678955078125,28.502628126097807,101.28167108347732,47.0805705551081,0.0,0.0,-6.5038167938931295,-5.633587786259542,-16.091603053435115
16.54,-0.0972285583218313,0.0,0.0,10.228030052627947,8.281543542480469,3.632003918457031,-4.778826513671874,28.502628126097807,101.28167108347732,47.0805705551081,0.0,0.0,-3.9083969465648853,1.8473282442748091,1.083969465648855
16.58,-0.0972285583218313,0.0,0.0,10.274961546267754,8.449137658691406,3.392583752441406,-4.762067102050781,28.502628126097807,101.28167108347732,47.0805705551081,0.0,0.0,4.67175572519084,-1.1603053435114503,9.435114503816793
16.63,-0.0972285583218313,0.0,0.0,10.139102561540115,8.355763793945313,3.3973721557617185,-4.630386010742187,28.502628126097807,101.28167108347732,47.0805705551081,0.0,0.0,-5.022900763358779,-5.6183206106870225,-13.312977099236642
16.68,-0.0972285583218313,0.0,0.0,10.409910351242907,8.525752111816406,3.3446997192382812,-4.948814831542968,28.502628126097807,101.28167108347732,47.0805705551081,0.0,0.0,-1.6488549618320612,2.4427480916030535,7.633587786259542
16.73,-0.0972285583218313,0.0,0.0,10.109541671067541,8.276755139160155,3.497928625488281,-4.632780212402343,28.502628126097807,101.28167108347732,47.0805705551081,0.0,0.0,-1.4809160305343512,-1.5725190839694656,0.8396946564885496
16.78,-0.0972285583218313,0.0,0.0,10.15599827946583,8.389282617187499,3.3782185424804685,-4.620809204101562,28.502628126097807,101.28167108347732,47.0805705551081,0.0,0.0,1.1450381679389312,-7.1603053435114505,-6.427480916030534
16.82,-0.0972285583218313,0.0,0.0,10.139803578638556,8.281543542480469,3.4620156005859375,-4.716577270507813,28.502628126097807,101.28167108347732,47.0805705551081,0.0,0.0,-6.0458015267175576,2.015267175572519,-0.7938931297709924
16.87,-0.0972285583218313,0.0,0.0,10.117553736076191,8.367734802246094,3.3782185424804685,-4.575319372558593,28.502628126097807,101.28167108347732,47.0805705551081,0.0,0.0,5.190839694656488,-0.732824427480916,9.221374045801527
16.92,-0.0972285583218313,0.0,0.0,10.155798756670453,8.386888415527343,3.3638533325195312,-4.6351744140625,28.502628126097807,101.28167108347732,47.0805705551081,0.0,0.0,-4.198473282442748,-0.5190839694656488,-3.053435114503817
16.97,-0.0972285583218313,0.0,0.0,10.063827824199477,8.300697155761718,3.303998291015625,-4.632780212402343,28.502628126097807,101.28167108347732,47.0805705551081,0.0,0.0,-2.7786259541984735,-2.5343511450381677,-2.366412213740458
16.97,-0.15189411903900885,0.0,0.0,10.063827824199477,8.300697155761718,3.303998291015625,-4.632780212402343,28.333349536179412,101.28232740982862,47.01476938042678,0.0,0.0,-2.7786259541984735,-2.5343511450381677,-2.366412213740458
16.97,-0.15189411903900885,0.0,0.0,10.063827824199477,8.300697155761718,3.303998291015625,-4.632780212402343,28.333349536179412,101.28232740982862,47.01476938042678,0.0,0.0,-2.7786259541984735,-2.5343511450381677,-2.366412213740458
17.03,-0.15189411903900885,0.0,0.0,10.146600648621515,8.40843623046875,3.2609026611328122,-4.649539624023437,28.333349536179412,101.28232740982862,47.01476938042678,0.0,0.0,1.282442748091603,0.07633587786259542,6.061068702290076
17.08,-0.15189411903900885,0.0,0.0,9.510838247660292,7.714117749023437,3.4524387939453125,-4.3622354248046875,28.333349536179412,101.28232740982862,47.01476938042678,0.0,0.0,-5.145038167938932,-4.458015267175573,-10.534351145038167
17.12,-0.15189411903900885,0.0,0.0,9.606082483824771,7.790732202148437,3.35188232421875,-4.510675927734375,28.333349536179412,101.28232740982862,47.01476938042678,0.0,0.0,0.8854961832061069,-6.366412213740458,-7.740458015267175
17.17,-0.15189411903900885,0.0,0.0,10.188818493175097,8.410830432128906,3.4069489624023435,-4.632780212402343,28.333349536179412,101.28232740982862,47.01476938042678,0.0,0.0,-1.4045801526717556,4.076335877862595,9.038167938931299
17.22,-0.15189411903900885,0.0,0.0,10.104278173395093,8.252813122558594,3.497928625488281,-4.6639048339843745,28.333349536179412,101.28232740982862,47.01476938042678,0.0,0.0,-1.1145038167938932,-2.381679389312977,-2.015267175572519
17.27,-0.15189411903900885,0.0,0.0,10.121666692490518,8.279149340820313,3.4955344238281247,-4.656722229003906,28.333349536179412,101.28232740982862,47.01476938042678,0.0,0.0,-1.282442748091603,0.3816793893129771,2.6259541984732824
17.32,-0.15189411903900885,0.0,0.0,10.128512437525673,8.2743609375,3.497928625488281,-4.678270043945313,28.333349536179412,101.28232740982862,47.01476938042678,0.0,0.0,-0.9618320610687023,-3.6793893129770994,-3.312977099236641
17.36,-0.15189411903900885,0.0,0.0,10.128512437525673,8.2743609375,3.497928625488281,-4.678270043945313,28.333349536179412,101.28232740982862,47.01476938042678,0.0,0.0,-0.9618320610687023,-3.6793893129770994,-3.312977099236641
17.36,-0.15189411903900885,0.0,0.0,10.090826089841086,8.298302954101562,3.4620156005859375,-4.580107775878906,28.333349536179412,101.28232740982862,47.01476938042678,0.0,0.0,-1.8473282442748091,-1.1908396946564885,-0.6870229007633588
17.41,-0.15189411903900885,0.0,0.0,10.153888557869415,8.291120349121094,3.5506010620117183,-4.6639048339843745,28.333349536179412,101.28232740982862,47.01476938042678,0.0,0.0,-0.2900763358778626,-2.0763358778625953,-0.12213740458015267
17.46,-0.15189411903900885,0.0,0.0,9.972553204451502,8.097190014648437,3.5960908935546874,-4.57771357421875,28.333349536179412,101.28232740982862,47.01476938042678,0.0,0.0,2.1526717557251906,3.435114503816794,10.122137404580153
17.51,-0.15189411903900885,0.0,0.0,9.92021907153945,8.305485559082031,3.2249896362304686,-4.3622354248046875,28.333349536179412,101.28232740982862,47.01476938042678,0.0,0.0,-0.04580152671755725,1.3893129770992367,4.396946564885496
17.54,-0.14698000905805308,0.16380366603187188,0.0,9.92021907153945,8.305485559082031,3.2249896362304686,-4.3622354248046875,28.52528253384571,101.28226840983783,47.02613349314572,0.0,0.0,-0.04580152671755725,1.3893129770992367,4.396946564885496
17.56,-0.14698000905805308,0.0,0.0,9.847914017526314,7.994239343261718,3.327940307617187,-4.690241052246093,28.52528253384571,101.28226840983783,47.02613349314572,0.0,0.0,-9.86259541984733,5.114503816793893,-10.961832061068701
17.6,-0.14698000905805308,0.0,0.0,10.925997445598762,8.86812294921875,3.909731311035156,-5.044582897949218,28.52528253384571,101.28226840983783,47.02613349314572,0.0,0.0,5.66412213740458,4.916030534351145,17.419847328244273
17.65,-0.14698000905805308,0.0,0.0,9.916171123345409,8.403647827148436,2.8850130004882812,-4.402936853027343,28.52528253384571,101.28226840983783,47.02613349314572,0.0,0.0,0.916030534351145,-8.67175572519084,-4.351145038167939
17.7,-0.14698000905805308,0.0,0.0,10.353182708844077,8.339004382324218,3.7014357666015623,-4.893748193359374,28.52528253384571,101.28226840983783,47.02613349314572,0.0,0.0,-11.083969465648854,-4.458015267175573,-21.129770992366414
17.75,-0.14698000905805308,0.0,0.0,10.184013623337462,8.422801440429687,3.3494881225585935,-4.642357019042969,28.52528253384571,101.28226840983783,47.02613349314572,0.0,0.0,7.450381679389313,-1.7404580152671756,12.274809160305344
17.8,-0.14698000905805308,0.0,0.0,10.215061084963866,8.461108666992187,3.3207577026367185,-4.661510632324219,28.52528253384571,101.28226840983783,47.02613349314572,0.0,0.0,-2.7480916030534353,-1.6946564885496183,-3.2213740458015265
17.84,-0.14698000905805308,0.0,0.0,10.12655350539905,8.142679846191406,3.689464758300781,-4.7572786987304685,28.52528253384571,101.28226840983783,47.02613349314572,0.0,0.0,-4.885496183206107,5.114503816793893,5.00763358778626
17.89,-0.14698000905805308,0.0,0.0,9.996932194258983,8.37012900390625,3.1866824096679687,-4.441244079589843,28.52528253384571,101.28226840983783,47.02613349314572,0.0,0.0,6.3816793893129775,-0.5343511450381679,11.801526717557252
17.94,-0.14698000905805308,0.0,0.0,10.000728502187377,8.147468249511718,3.517082238769531,-4.611232397460937,28.52528253384571,101.28226840983783,47.02613349314572,0.0,0.0,-4.793893129770993,-3.1297709923664123,-9.358778625954198
17.99,-0.14698000905805308,0.0,0.0,10.187190487875862,8.341398583984375,3.404554760742187,-4.754884497070313,28.52528253384571,101.28226840983783,47.02613349314572,0.0,0.0,1.8778625954198473,2.0610687022900764,10.045801526717558
18.04,-0.14698000905805308,0.0,0.0,10.049732695396346,8.202534887695313,3.5098996337890624,-4.6255976074218745,28.52528253384571,101.28226840983783,47.02613349314572,0.0,0.0,-2.9618320610687023,-8.16793893129771,-15.083969465648854
18.04,-0.14698000905805308,0.0,0.0,10.049732695396346,8.202534887695313,3.5098996337890624,-4.6255976074218745,28.52528253384571,101.28226840983783,47.02613349314572,0.0,0.0,-2.9618320610687023,-8.16793893129771,-15.083969465648854
18.08,-0.14698000905805308,0.0,0.0,10.200608492875583,8.303091357421874,3.4572271972656248,-4.8123453369140625,28.52528253384571,101.28226840983783,47.02613349314572,0.0,0.0,-2.198473282442748,5.206106870229007,9.267175572519085
18.13,-0.14698000905805308,0.0,0.0,10.287301149885641,8.511386901855468,3.5410242553710933,-4.565742565917969,28.52528253384571,101.28226840983783,47.02613349314572,0.0,0.0,2.549618320610687,-5.267175572519084,-0.8549618320610687
18.18,-0.14698000905805308,0.0,0.0,9.658434433079929,7.668627917480468,3.201047619628906,-4.92247861328125,28.52528253384571,101.28226840983783,47.02613349314572,0.0,0.0,-12.473282442748092,-5.190839694656488,-17.404580152671755
18.23,-0.14698000905805308,0.0,0.0,10.426216324310808,8.245630517578125,4.010287780761718,-4.963180041503906,28.52528253384571,101.28226840983783,47.02613349314572,0.0,0.0,1.5572519083969465,-4.229007633587786,-6.687022900763359
18.27,-0.0847510569284049,1.5557238032412377,0.0,10.426216324310808,8.245630517578125,4.010287780761718,-4.963180041503906,28.530946136666717,101.28152127642393,47.00139047827982,0.0,0.0,1.5572519083969465,-4.229007633587786,-6.687022900763359
18.28,-0.0847510569284049,0.0,0.0,10.528092301061582,8.662221606445312,3.7038299682617186,-4.6998178588867185,28.530946136666717,101.28152127642393,47.00139047827982,0.0,0.0,-2.931297709923664,0.2748091603053435,0.44274809160305345
18.32,-0.0847510569284049,0.0,0.0,10.432203988110905,8.166621862792969,4.259284753417968,-4.898536596679687,28.530946136666717,101.28152127642393,47.00139047827982,0.0,0.0,-7.282442748091603,-5.648854961832061,-16.82442748091603
18.36,-0.0847510569284049,0.0,0.0,10.432203988110905,8.166621862792969,4.259284753417968,-4.898536596679687,28.530946136666717,101.28152127642393,47.00139047827982,0.0,0.0,-7.282442748091603,-5.648854961832061,-16.82442748091603
18.37,-0.0847510569284049,0.0,0.0,10.30713435950553,8.396465222167969,3.517082238769531,-4.833893151855468,28.530946136666717,101.28152127642393,47.00139047827982,0.0,0.0,-0.9007633587786259,5.66412213740458,14.305343511450381
18.42,-0.0847510569284049,0.0,0.0,10.168273668351677,8.305485559082031,3.4620156005859375,-4.735730883789063,28.530946136666717,101.28152127642393,47.00139047827982,0.0,0.0,-9.221374045801527,-10.763358778625955,-19.374045801526716
18.47,-0.0847510569284049,0.0,0.0,10.089107275849509,7.539341027832031,3.9911341674804683,-5.386953735351562,28.530946136666717,101.28152127642393,47.00139047827982,0.0,0.0,-8.595419847328245,-20.290076335877863,-41.32824427480916
18.52,-0.0847510569284049,0.0,0.0,10.069130683913874,8.147468249511718,3.612850305175781,-4.685452648925781,28.530946136666717,101.28152127642393,47.00139047827982,0.0,0.0,8.67175572519084,14.488549618320612,41.465648854961835
18.56,-0.0847510569284049,0.0,0.0,10.425570029278411,8.243236315917969,4.134786267089844,-4.862623571777344,28.530946136666717,101.28152127642393,47.00139047827982,0.0,0.0,-6.977099236641221,-11.022900763358779,-22.396946564885496
18.61,-0.0847510569284049,0.0,0.0,10.225268950369998,8.013392956542969,4.316745593261719,-4.659116430664063,28.530946136666717,101.28152127642393,47.00139047827982,0.0,0.0,-12.534351145038167,-5.236641221374046,-18.580152671755727
18.66,-0.0847510569284049,0.0,0.0,10.027622554395666,7.9463553100585935,4.122815258789062,-4.517858532714843,28.530946136666717,101.28152127642393,47.00139047827982,0.0,0.0,-2.045801526717557,-16.580152671755727,-14.732824427480915
18.71,-0.0847510569284049,0.0,0.0,10.00307653845992,7.532158422851562,4.908113403320312,-4.386177441406249,28.530946136666717,101.28152127642393,47.00139047827982,0.0,0.0,-12.854961832061068,-23.633587786259543,-37.267175572519086
18.76,-0.0847510569284049,0.0,0.0,9.662956968709643,7.213729602050781,4.129997863769531,-4.927267016601562,28.530946136666717,101.28152127642393,47.00139047827982,0.0,0.0,-11.908396946564885,-3.7709923664122136,-14.091603053435115
18.81,-0.0847510569284049,0.0,0.0,10.089394475359088,7.244854223632812,4.8698061767578125,-5.058948107910156,28.530946136666717,101.28152127642393,47.00139047827982,0.0,0.0,-5.221374045801527,-8.335877862595419,-13.633587786259541
18.83,-0.1682292946407138,-4.173911885615533,0.0,10.089394475359088,7.244854223632812,4.8698061767578125,-5.058948107910156,28.412010551684034,101.28252353409022,46.95465958292962,0.0,0.0,-5.221374045801527,-8.335877862595419,-13.633587786259541
18.85,-0.1682292946407138,0.0,0.0,10.223698051570832,7.498639599609374,5.015852478027344,-4.809951135253906,28.412010551684034,101.28252353409022,46.95465958292962,0.0,0.0,4.717557251908397,-2.0763358778625953,8.412213740458014
18.9,-0.1682292946407138,0.0,0.0,10.094470677089369,7.716511950683593,4.560954162597656,-4.642357019042969,28.412010551684034,101.28252353409022,46.95465958292962,0.0,0.0,6.412213740458015,0.4580152671755725,17.00763358778626
18.95,-0.1682292946407138,0.0,0.0,10.052182193960277,7.40526573486328,4.965574243164062,-4.642357019042969,28.412010551684034,101.28252353409022,46.95465958292962,0.0,0.0,-5.343511450381679,-4.442748091603053,-15.038167938931299
19.0,-0.1682292946407138,0.0,0.0,10.085861154132528,7.474697583007812,4.88417138671875,-4.690241052246093,28.412010551684034,101.28252353409022,46.95465958292962,0.0,0.0,6.793893129770993,-1.633587786259542,10.076335877862595
19.05,-0.1682292946407138,0.0,0.0,10.096048908323151,7.7596075805664055,4.517858532714843,-4.61602080078125,28.412010551684034,101.28252353409022,46.95465958292962,0.0,0.0,8.687022900763358,1.8015267175572518,21.114503816793892
19.09,-0.1682292946407138,0.0,0.0,10.12110572726731,7.75721337890625,4.601655590820312,-4.592078784179687,28.412010551684034,101.28252353409022,46.95465958292962,0.0,0.0,0.6412213740458015,1.7251908396946565,4.351145038167939
19.11,-0.1682292946407138,0.0,0.0,10.12110572726731,7.75721337890625,4.601655590820312,-4.592078784179687,28.412010551684034,101.28252353409022,46.95465958292962,0.0,0.0,0.6412213740458015,1.7251908396946565,4.351145038167939
19.14,-0.1682292946407138,0.0,0.0,10.361054226135542,8.013392956542969,4.367023828124999,-4.905719201660156,28.412010551684034,101.28252353409022,46.95465958292962,0.0,0.0,1.6946564885496183,5.038167938931298,14.106870229007633
19.19,-0.1682292946407138,0.0,0.0,10.39837062218549,8.001421948242188,4.553771557617187,-4.833893151855468,28.412010551684034,101.28252353409022,46.95465958292962,0.0,0.0,2.0,-0.3816793893129771,7.190839694656488
19.24,-0.1682292946407138,0.0,0.0,10.040427714528983,7.781155395507812,4.453215087890625,-4.520252734375,28.412010551684034,101.28252353409022,46.95465958292962,0.0,0.0,-1.8625954198473282,1.1145038167938932,3.4198473282442747
19.29,-0.1682292946407138,0.0,0.0,10.165300946294352,7.8912886718749995,4.42448466796875,-4.6351744140625,28.412010551684034,101.28252353409022,46.95465958292962,0.0,0.0,0.7633587786259542,-2.6259541984732824,1.2671755725190839
19.33,-0.1682292946407138,0.0,0.0,10.0717271411033,7.7787611938476555,4.534617944335937,-4.513070129394531,28.412010551684034,101.28252353409022,46.95465958292962,0.0,0.0,-1.5267175572519085,-2.0763358778625953,-1.984732824427481
19.36,-0.1682292946407138,0.0,0.0,10.0717271411033,7.7787611938476555,4.534617944335937,-4.513070129394531,28.412010551684034,101.28252353409022,46.95465958292962,0.0,0.0,-1.5267175572519085,-2.0763358778625953,-1.984732824427481
