# targetAltitude=4000.0
time,altitude,velocity,horizontalVelocity,acceleration,accelerationX,accelerationY,accelerationZ,temperature,pressure,humidity,gpsLat,gpsLon,pitch,roll,yaw
0.0,0.0,0.0,0.0,10.090396626823656,9.528922607421874,0.38307226562499996,-3.296815686035156,20.0,101.3,50.0,0.0,0.0,-0.6564885496183206,-1.1908396946564885,0.1984732824427481
0.03,0.0,0.0,0.0,10.11167169966443,9.536105212402344,0.411802685546875,-3.337517114257812,20.0,101.3,50.0,0.0,0.0,-0.8244274809160306,-1.2061068702290076,0.2595419847328244
0.08,0.0,0.0,0.0,10.111887398859036,9.536105212402344,0.39743747558593745,-3.3399113159179685,20.0,101.3,50.0,0.0,0.0,-1.0534351145038168,-1.2671755725190839,0.0916030534351145
0.11,0.0,0.0,0.0,10.144941289651207,9.572018237304688,0.3758896606445312,-3.3399113159179685,20.0,101.3,50.0,0.0,0.0,-0.8702290076335878,-1.1755725190839694,0.183206106870229
0.15,0.0,0.0,0.0,10.104231370672696,9.540893615722656,0.38786066894531246,-3.303998291015625,20.0,101.3,50.0,0.0,0.0,-1.0229007633587786,-1.1755725190839694,0.22900763358778625
0.17,0.0,0.0,0.0,10.104231370672696,9.540893615722656,0.38786066894531246,-3.303998291015625,20.0,101.3,50.0,0.0,0.0,-1.0229007633587786,-1.1755725190839694,0.22900763358778625
0.2,0.0,0.0,0.0,10.094556138993708,9.519345800781249,0.37828386230468747,-3.337517114257812,20.0,101.3,50.0,0.0,0.0,-1.0534351145038168,-1.1603053435114503,0.21374045801526717
0.24,0.0,0.0,0.0,9.819256755972285,9.153032946777342,0.4860229370117187,-3.5218706420898434,20.0,101.3,50.0,0.0,0.0,-2.931297709923664,-1.450381679389313,0.04580152671755725
0.29,0.0,0.0,0.0,9.082407705706222,8.396465222167969,1.0510545288085937,-3.299209887695312,20.0,101.3,50.0,0.0,0.0,-8.122137404580153,-2.717557251908397,2.1374045801526718
0.32,0.0,0.0,0.0,9.428102881272727,8.865728747558594,0.26815058593749996,-3.1962592163085937,20.0,101.3,50.0,0.0,0.0,-3.1755725190839694,-1.1755725190839694,1.0381679389312977
0.37,0.0,0.0,0.0,10.190671238870227,9.641450085449218,0.4429273071289062,-3.2704794677734372,20.0,101.3,50.0,0.0,0.0,-1.786259541984733,-1.2213740458015268,0.2900763358778626
0.44,0.0,0.0,0.0,10.20823940794447,9.6151138671875,0.38786066894531246,-3.4069489624023435,20.0,101.3,50.0,0.0,0.0,-1.1145038167938932,-1.2671755725190839,0.10687022900763359
0.5,0.0,0.0,0.0,10.026890827038835,9.447519750976562,0.39983167724609375,-3.3351229125976563,20.0,101.3,50.0,0.0,0.0,-1.3740458015267176,-1.1908396946564885,0.32061068702290074
0.52,0.0,0.0,0.0,10.026890827038835,9.447519750976562,0.39983167724609375,-3.3351229125976563,20.0,101.3,50.0,0.0,0.0,-1.3740458015267176,-1.1908396946564885,0.32061068702290074
0.55,0.0,0.0,0.0,10.011376214294879,9.449913952636718,0.3902548706054687,-3.2824504760742186,20.0,101.3,50.0,0.0,0.0,-1.7557251908396947,-1.2061068702290076,0.2900763358778626
0.57,0.0,0.0,0.0,10.240139886075374,9.674968908691406,0.4429273071289062,-3.3255461059570313,20.0,101.3,50.0,0.0,0.0,-0.5954198473282443,-1.251908396946565,-0.15267175572519084
0.61,0.0,0.0,0.0,9.97043829910804,9.404424121093749,0.4381389038085937,-3.2824504760742186,20.0,101.3,50.0,0.0,0.0,-1.3893129770992367,-1.1450381679389312,0.32061068702290074
0.63,0.0,0.0,0.0,9.97043829910804,9.404424121093749,0.4381389038085937,-3.2824504760742186,20.0,101.3,50.0,0.0,0.0,-1.3893129770992367,-1.1450381679389312,0.32061068702290074
0.65,0.0,0.0,0.0,10.11320700360696,9.53131680908203,0.40462008056640625,-3.356670727539062,20.0,101.3,50.0,0.0,0.0,-1.2213740458015268,-1.2061068702290076,0.15267175572519084
0.68,0.0,0.0,0.0,10.268431989738513,9.710881933593749,0.41898529052734373,-3.3111808959960936,20.0,101.3,50.0,0.0,0.0,-0.3816793893129771,-1.282442748091603,-0.10687022900763359
0.73,0.0,0.0,0.0,10.26837365398012,9.686939916992188,0.39743747558593745,-3.383006945800781,20.0,101.3,50.0,0.0,0.0,-0.48854961832061067,-1.297709923664122,-0.030534351145038167
0.77,0.0,0.0,0.0,10.04864377432346,9.478644372558593,0.44532150878906246,-3.306392492675781,20.0,101.3,50.0,0.0,0.0,-1.1908396946564885,-1.1755725190839694,0.33587786259541985
0.8,0.0,0.0,0.0,10.061129909790244,9.471461767578125,0.3711012573242187,-3.373430139160156,20.0,101.3,50.0,0.0,0.0,-1.0076335877862594,-1.083969465648855,0.24427480916030533
0.83,0.0,0.0,0.0,10.187838120245505,9.631873278808593,0.4261678955078125,-3.2920272827148436,20.0,101.3,50.0,0.0,0.0,-0.5038167938931297,-1.1755725190839694,0.16793893129770993
0.87,0.0,0.0,0.0,10.174676797983008,9.591171850585937,0.430956298828125,-3.3686417358398435,20.0,101.3,50.0,0.0,0.0,-0.8244274809160306,-1.2213740458015268,0.21374045801526717
0.92,0.0,0.0,0.0,10.135559422306683,9.586383447265625,0.38786066894531246,-3.268085266113281,20.0,101.3,50.0,0.0,0.0,-0.4732824427480916,-1.1603053435114503,0.183206106870229
0.96,0.0,0.0,0.0,10.07453288469053,9.49300958251953,0.4381389038085937,-3.3446997192382812,20.0,101.3,50.0,0.0,0.0,-1.0076335877862594,-1.2061068702290076,0.21374045801526717
1.01,0.0,0.0,0.0,10.071296863663267,9.507374792480467,0.3950432739257812,-3.299209887695312,20.0,101.3,50.0,0.0,0.0,-1.1603053435114503,-1.2213740458015268,0.24427480916030533
1.05,0.0,0.0,0.0,10.089909198237942,9.526528405761718,0.44532150878906246,-3.294421484375,20.0,101.3,50.0,0.0,0.0,-1.0076335877862594,-1.1297709923664123,0.2595419847328244
1.1,0.0,0.0,0.0,10.109611696442336,9.536105212402344,0.39983167724609375,-3.3327287109375,20.0,101.3,50.0,0.0,0.0,-0.8854961832061069,-1.1450381679389312,0.21374045801526717
1.14,0.0,0.0,0.0,10.136789709381647,9.552864624023437,0.4070142822265625,-3.366247534179687,20.0,101.3,50.0,0.0,0.0,-0.9770992366412213,-1.1755725190839694,0.22900763358778625
1.17,0.0,0.0,0.0,10.136789709381647,9.552864624023437,0.4070142822265625,-3.366247534179687,20.0,101.3,50.0,0.0,0.0,-0.9770992366412213,-1.1755725190839694,0.22900763358778625
1.19,0.0,0.0,0.0,10.157724961527508,9.586383447265625,0.4165910888671875,-3.3327287109375,20.0,101.3,50.0,0.0,0.0,-0.5801526717557252,-1.1450381679389312,0.22900763358778625
1.2,0.0,0.0,0.0,10.157724961527508,9.586383447265625,0.4165910888671875,-3.3327287109375,20.0,101.3,50.0,0.0,0.0,-0.5801526717557252,-1.1450381679389312,0.22900763358778625
1.22,0.0,0.0,0.0,10.167284830834541,9.588777648925781,0.40222587890625,-3.356670727539062,20.0,101.3,50.0,0.0,0.0,-0.7633587786259542,-1.1755725190839694,0.24427480916030533
1.27,0.0,0.0,0.0,10.13308793475213,9.567229833984374,0.4285620971679687,-3.3111808959960936,20.0,101.3,50.0,0.0,0.0,-0.8854961832061069,-1.1908396946564885,0.24427480916030533
1.32,0.0,0.0,0.0,10.112953072430457,9.550470422363281,0.41898529052734373,-3.299209887695312,20.0,101.3,50.0,0.0,0.0,-0.9007633587786259,-1.251908396946565,0.3053435114503817
1.37,0.0,0.0,0.0,10.154417511182519,9.591171850585937,0.4165910888671875,-3.308786694335937,20.0,101.3,50.0,0.0,0.0,-0.9770992366412213,-1.2061068702290076,0.22900763358778625
1.4,0.0,0.0,0.0,10.113971592687676,9.533711010742186,0.4070142822265625,-3.35188232421875,20.0,101.3,50.0,0.0,0.0,-0.5648854961832062,-1.1297709923664123,0.183206106870229
1.45,0.0,0.0,0.0,10.130950243980442,9.560047229003906,0.44532150878906246,-3.323151904296875,20.0,101.3,50.0,0.0,0.0,-0.8091603053435115,-1.1755725190839694,0.12213740458015267
1.5,0.0,0.0,0.0,10.109187567716102,9.550470422363281,0.38307226562499996,-3.2920272827148436,20.0,101.3,50.0,0.0,0.0,-0.7022900763358778,-1.2061068702290076,0.22900763358778625
1.55,0.0,0.0,0.0,10.12513147158713,9.560047229003906,0.39983167724609375,-3.3111808959960936,20.0,101.3,50.0,0.0,0.0,-0.9618320610687023,-1.2366412213740459,0.183206106870229
1.58,0.0,0.0,0.0,10.10008236976518,9.536105212402344,0.39743747558593745,-3.303998291015625,20.0,101.3,50.0,0.0,0.0,-0.8244274809160306,-1.1908396946564885,0.2748091603053435
1.59,0.0,0.0,0.0,10.10008236976518,9.536105212402344,0.39743747558593745,-3.303998291015625,20.0,101.3,50.0,0.0,0.0,-0.8244274809160306,-1.1908396946564885,0.2748091603053435
1.63,0.0,0.0,0.0,10.087302646352146,9.524134204101562,0.41898529052734373,-3.296815686035156,20.0,101.3,50.0,0.0,0.0,-0.6717557251908397,-1.2061068702290076,0.24427480916030533
1.67,0.0,0.0,0.0,10.126704358336772,9.562441430664062,0.40222587890625,-3.308786694335937,20.0,101.3,50.0,0.0,0.0,-1.1908396946564885,-1.2671755725190839,0.16793893129770993
1.71,0.0,0.0,0.0,10.132192122684273,9.564835632324218,0.42377369384765623,-3.3159692993164063,20.0,101.3,50.0,0.0,0.0,-0.9465648854961832,-1.2213740458015268,0.24427480916030533
1.75,0.0,0.0,0.0,10.141529344052442,9.555258825683593,0.40940848388671874,-3.373430139160156,20.0,101.3,50.0,0.0,0.0,-0.7022900763358778,-1.1755725190839694,0.13740458015267176
1.8,0.0,0.0,0.0,10.148021368552676,9.574412438964844,0.39743747558593745,-3.3399113159179685,20.0,101.3,50.0,0.0,0.0,-1.0229007633587786,-1.1755725190839694,0.1984732824427481
1.83,0.0,0.0,0.0,10.103834247940775,9.557653027343749,0.40940848388671874,-3.2513258544921873,20.0,101.3,50.0,0.0,0.0,-0.6412213740458015,-1.0229007633587786,0.2748091603053435
1.88,0.0,0.0,0.0,10.116497613050855,9.555258825683593,0.41419688720703124,-3.296815686035156,20.0,101.3,50.0,0.0,0.0,-0.8091603053435115,-1.1603053435114503,0.1984732824427481
1.92,0.0,0.0,0.0,10.172790711194844,9.591171850585937,0.42377369384765623,-3.3638533325195312,20.0,101.3,50.0,0.0,0.0,-0.6870229007633588,-1.1603053435114503,0.15267175572519084
1.92,0.0,0.0,0.0,10.172790711194844,9.591171850585937,0.42377369384765623,-3.3638533325195312,20.0,101.3,50.0,0.0,0.0,-0.6870229007633588,-1.1603053435114503,0.15267175572519084
1.97,0.0,0.0,0.0,10.091632703776515,9.509768994140625,0.39264907226562495,-3.3542765258789062,20.0,101.3,50.0,0.0,0.0,-0.8549618320610687,-1.1755725190839694,0.24427480916030533
2.01,0.0,0.0,0.0,10.131202592477617,9.562441430664062,0.4165910888671875,-3.3207577026367185,20.0,101.3,50.0,0.0,0.0,-0.7022900763358778,-1.2213740458015268,0.13740458015267176
2.05,0.0,0.0,0.0,10.139289409947818,9.56962403564453,0.3902548706054687,-3.327940307617187,20.0,101.3,50.0,0.0,0.0,-0.7633587786259542,-1.2213740458015268,0.13740458015267176
2.09,0.0,0.0,0.0,10.133985930198731,9.572018237304688,0.4165910888671875,-3.3016040893554686,20.0,101.3,50.0,0.0,0.0,-1.083969465648855,-1.251908396946565,0.22900763358778625
2.13,0.0,0.0,0.0,10.089483389079145,9.528922607421874,0.39983167724609375,-3.2920272827148436,20.0,101.3,50.0,0.0,0.0,-0.916030534351145,-1.2061068702290076,0.21374045801526717
2.17,0.0,0.0,0.0,10.089483389079145,9.528922607421874,0.39983167724609375,-3.2920272827148436,20.0,101.3,50.0,0.0,0.0,-0.916030534351145,-1.2061068702290076,0.21374045801526717
2.18,0.0,0.0,0.0,10.136916659948396,9.562441430664062,0.40222587890625,-3.3399113159179685,20.0,101.3,50.0,0.0,0.0,-0.9618320610687023,-1.1755725190839694,0.183206106870229
2.23,0.0,0.0,0.0,10.133178162142725,9.557653027343749,0.4213794921875,-3.3399113159179685,20.0,101.3,50.0,0.0,0.0,-0.8396946564885496,-1.251908396946565,0.1984732824427481
2.28,0.0,0.0,0.0,10.127439628103765,9.540893615722656,0.4525041137695312,-3.366247534179687,20.0,101.3,50.0,0.0,0.0,-0.5954198473282443,-1.2061068702290076,0.21374045801526717
2.33,0.0,0.0,0.0,10.123366671824904,9.548076220703125,0.40222587890625,-3.3399113159179685,20.0,101.3,50.0,0.0,0.0,-0.916030534351145,-1.1908396946564885,0.1984732824427481
2.38,0.0,0.0,0.0,10.185373408884107,9.588777648925781,0.43574470214843747,-3.4069489624023435,20.0,101.3,50.0,0.0,0.0,-0.8702290076335878,-1.1908396946564885,0.22900763358778625
2.41,0.0,0.0,0.0,10.161466274682947,9.593566052246093,0.41898529052734373,-3.323151904296875,20.0,101.3,50.0,0.0,0.0,-0.9618320610687023,-1.2366412213740459,0.22900763358778625
2.46,0.0,0.0,0.0,10.11365816916586,9.552864624023437,0.39983167724609375,-3.296815686035156,20.0,101.3,50.0,0.0,0.0,-1.0534351145038168,-1.2366412213740459,0.10687022900763359
2.5,0.0,0.0,0.0,10.17192234577483,9.595960253906249,0.38786066894531246,-3.35188232421875,20.0,101.3,50.0,0.0,0.0,-0.7633587786259542,-1.1603053435114503,0.0916030534351145
2.54,0.0,0.0,0.0,10.155629991755244,9.595960253906249,0.411802685546875,-3.299209887695312,20.0,101.3,50.0,0.0,0.0,-0.7480916030534351,-1.1755725190839694,0.183206106870229
2.58,0.0,0.0,0.0,10.116184551109537,9.550470422363281,0.40222587890625,-3.3111808959960936,20.0,101.3,50.0,0.0,0.0,-0.9618320610687023,-1.1450381679389312,0.1984732824427481
2.63,0.0,0.0,0.0,10.149908387154179,9.572018237304688,0.44053310546874996,-3.347093920898437,20.0,101.3,50.0,0.0,0.0,-0.8396946564885496,-1.1450381679389312,0.22900763358778625
2.66,0.0,0.0,0.0,10.149908387154179,9.572018237304688,0.44053310546874996,-3.347093920898437,20.0,101.3,50.0,0.0,0.0,-0.8396946564885496,-1.1450381679389312,0.22900763358778625
2.66,0.0,0.0,0.0,10.149908387154179,9.572018237304688,0.44053310546874996,-3.347093920898437,20.0,101.3,50.0,0.0,0.0,-0.8396946564885496,-1.1450381679389312,0.22900763358778625
2.68,0.0,0.0,0.0,10.155399699319648,9.591171850585937,0.40222587890625,-3.31357509765625,20.0,101.3,50.0,0.0,0.0,-1.0229007633587786,-1.1908396946564885,0.21374045801526717
2.71,0.0,0.0,0.0,10.142932689778148,9.562441430664062,0.41419688720703124,-3.356670727539062,20.0,101.3,50.0,0.0,0.0,-0.7480916030534351,-1.2061068702290076,0.21374045801526717
2.76,0.0,0.0,0.0,10.136457481554293,9.555258825683593,0.4213794921875,-3.356670727539062,20.0,101.3,50.0,0.0,0.0,-1.0229007633587786,-1.2213740458015268,0.183206106870229
2.81,0.0,0.0,0.0,10.121763251262792,9.526528405761718,0.430956298828125,-3.392583752441406,20.0,101.3,50.0,0.0,0.0,-1.1450381679389312,-1.1755725190839694,0.16793893129770993
2.84,0.0,0.0,0.0,10.173682666763519,9.591171850585937,0.4261678955078125,-3.366247534179687,20.0,101.3,50.0,0.0,0.0,-0.8396946564885496,-1.1755725190839694,0.0916030534351145
2.89,0.0,0.0,0.0,10.15173830760645,9.576806640625,0.41419688720703124,-3.342305517578125,20.0,101.3,50.0,0.0,0.0,-0.6717557251908397,-1.1755725190839694,0.22900763358778625
2.94,0.0,0.0,0.0,10.179526619002795,9.6151138671875,0.3806780639648437,-3.3207577026367185,20.0,101.3,50.0,0.0,0.0,-0.732824427480916,-1.2213740458015268,0.12213740458015267
2.98,0.0,0.0,0.0,10.134241879682186,9.550470422363281,0.4381389038085937,-3.361459130859375,20.0,101.3,50.0,0.0,0.0,-0.9923664122137404,-1.2061068702290076,0.15267175572519084
3.02,0.0,0.0,0.0,10.08601488901833,9.516951599121093,0.41898529052734373,-3.31357509765625,20.0,101.3,50.0,0.0,0.0,-1.1755725190839694,-1.1908396946564885,0.1984732824427481
3.06,0.0,0.0,0.0,10.140089907568939,9.579200842285156,0.41898529052734373,-3.299209887695312,20.0,101.3,50.0,0.0,0.0,-0.5038167938931297,-1.1145038167938932,0.22900763358778625
3.11,0.0,0.0,0.0,10.126716528363245,9.564835632324218,0.40462008056640625,-3.3016040893554686,20.0,101.3,50.0,0.0,0.0,-0.9923664122137404,-1.251908396946565,0.3053435114503817
3.16,0.0,0.0,0.0,10.136096966699332,9.576806640625,0.4333505004882812,-3.2920272827148436,20.0,101.3,50.0,0.0,0.0,-0.6717557251908397,-1.2061068702290076,0.2595419847328244
3.17,0.0,0.0,0.0,10.136096966699332,9.576806640625,0.4333505004882812,-3.2920272827148436,20.0,101.3,50.0,0.0,0.0,-0.6717557251908397,-1.2061068702290076,0.2595419847328244
3.19,0.0,0.0,0.0,10.147104843374972,9.586383447265625,0.3854664672851562,-3.303998291015625,20.0,101.3,50.0,0.0,0.0,-1.1450381679389312,-1.251908396946565,0.04580152671755725
3.23,0.0,0.0,0.0,10.147104843374972,9.586383447265625,0.3854664672851562,-3.303998291015625,20.0,101.3,50.0,0.0,0.0,-1.1450381679389312,-1.251908396946565,0.04580152671755725
3.24,0.0,0.0,0.0,10.110448561361453,9.560047229003906,0.4213794921875,-3.2632968627929686,20.0,101.3,50.0,0.0,0.0,-0.9007633587786259,-1.2213740458015268,0.10687022900763359
3.29,0.0,0.0,0.0,10.105167100307147,9.548076220703125,0.43574470214843747,-3.2800562744140622,20.0,101.3,50.0,0.0,0.0,-1.0229007633587786,-1.251908396946565,0.183206106870229
3.34,0.0,0.0,0.0,10.154696936441962,9.586383447265625,0.39983167724609375,-3.3255461059570313,20.0,101.3,50.0,0.0,0.0,-0.8549618320610687,-1.1603053435114503,0.15267175572519084
3.37,0.0,0.0,0.0,10.134488490086234,9.540893615722656,0.411802685546875,-3.392583752441406,20.0,101.3,50.0,0.0,0.0,-0.7480916030534351,-1.1908396946564885,0.13740458015267176
3.42,0.0,0.0,0.0,10.134357549758862,9.564835632324218,0.39983167724609375,-3.3255461059570313,20.0,101.3,50.0,0.0,0.0,-1.0687022900763359,-1.2366412213740459,0.183206106870229
3.47,0.0,0.0,0.0,10.16352140768649,9.576806640625,0.411802685546875,-3.3782185424804685,20.0,101.3,50.0,0.0,0.0,-0.8396946564885496,-1.1297709923664123,0.13740458015267176
3.52,0.0,0.0,0.0,10.132092268817145,9.564835632324218,0.4213794921875,-3.3159692993164063,20.0,101.3,50.0,0.0,0.0,-1.0229007633587786,-1.1603053435114503,0.16793893129770993
3.56,0.0,0.0,0.0,10.098744305385049,9.536105212402344,0.38307226562499996,-3.3016040893554686,20.0,101.3,50.0,0.0,0.0,-0.9007633587786259,-1.1908396946564885,0.10687022900763359
3.61,0.0,0.0,0.0,10.110784478507068,9.536105212402344,0.40940848388671874,-3.3351229125976563,20.0,101.3,50.0,0.0,0.0,-0.8702290076335878,-1.2061068702290076,0.1984732824427481
3.66,0.0,0.0,0.0,10.169374299419854,9.574412438964844,0.373495458984375,-3.4069489624023435,20.0,101.3,50.0,0.0,0.0,-0.7175572519083969,-1.1297709923664123,0.183206106870229
3.7,0.0,0.0,0.0,10.122105588578675,9.56962403564453,0.40940848388671874,-3.2728736694335936,20.0,101.3,50.0,0.0,0.0,-0.9923664122137404,-1.251908396946565,0.21374045801526717
3.73,0.0,0.0,0.0,10.122105588578675,9.56962403564453,0.40940848388671874,-3.2728736694335936,20.0,101.3,50.0,0.0,0.0,-0.9923664122137404,-1.251908396946565,0.21374045801526717
3.74,0.0,0.0,0.0,10.112644718858233,9.545682019042967,0.4261678955078125,-3.3111808959960936,20.0,101.3,50.0,0.0,0.0,-0.732824427480916,-1.1145038167938932,0.16793893129770993
3.79,0.0,0.0,0.0,10.11999021740941,9.540893615722656,0.38786066894531246,-3.35188232421875,20.0,101.3,50.0,0.0,0.0,-0.9007633587786259,-1.2366412213740459,0.2900763358778626
3.84,0.0,0.0,0.0,10.143443848222631,9.579200842285156,0.3854664672851562,-3.31357509765625,20.0,101.3,50.0,0.0,0.0,-0.8396946564885496,-1.1755725190839694,0.16793893129770993
3.89,0.0,0.0,0.0,10.113151740110245,9.540893615722656,0.3950432739257812,-3.3303345092773435,20.0,101.3,50.0,0.0,0.0,-1.0534351145038168,-1.251908396946565,0.13740458015267176
3.94,0.0,0.0,0.0,10.14418186018948,9.574412438964844,0.39983167724609375,-3.327940307617187,20.0,101.3,50.0,0.0,0.0,-0.6259541984732825,-1.1603053435114503,0.183206106870229
3.95,0.0,0.0,0.0,10.14418186018948,9.574412438964844,0.39983167724609375,-3.327940307617187,20.0,101.3,50.0,0.0,0.0,-0.6259541984732825,-1.1603053435114503,0.183206106870229
3.98,0.0,0.0,0.0,10.142872219358283,9.564835632324218,0.4525041137695312,-3.3446997192382812,20.0,101.3,50.0,0.0,0.0,-0.6259541984732825,-1.1603053435114503,0.13740458015267176
4.03,0.0,0.0,0.0,10.109887257174963,9.543287817382812,0.41419688720703124,-3.3111808959960936,20.0,101.3,50.0,0.0,0.0,-0.7633587786259542,-1.1755725190839694,0.10687022900763359
4.08,0.0,0.0,0.0,10.12656426046713,9.562441430664062,0.37828386230468747,-3.3111808959960936,20.0,101.3,50.0,0.0,0.0,-1.083969465648855,-1.2213740458015268,0.16793893129770993
4.13,0.0,0.0,0.0,10.146076654976447,9.574412438964844,0.44532150878906246,-3.327940307617187,20.0,101.3,50.0,0.0,0.0,-0.7022900763358778,-1.1297709923664123,0.12213740458015267
4.16,0.0,0.0,0.0,10.100075843052114,9.526528405761718,0.4070142822265625,-3.3303345092773435,20.0,101.3,50.0,0.0,0.0,-0.8091603053435115,-1.2213740458015268,0.2595419847328244
4.17,0.0,0.0,0.0,10.100075843052114,9.526528405761718,0.4070142822265625,-3.3303345092773435,20.0,101.3,50.0,0.0,0.0,-0.8091603053435115,-1.2213740458015268,0.2595419847328244
4.21,0.0,0.0,0.0,10.135868492608173,9.583989245605467,0.45010991210937495,-3.268085266113281,20.0,101.3,50.0,0.0,0.0,-0.916030534351145,-1.1755725190839694,0.16793893129770993
4.26,0.0,0.0,0.0,10.136955112367595,9.557653027343749,0.39743747558593745,-3.3542765258789062,20.0,101.3,50.0,0.0,0.0,-1.0076335877862594,-1.1603053435114503,0.15267175572519084
4.31,0.0,0.0,0.0,10.11966650112766,9.545682019042967,0.3854664672851562,-3.337517114257812,20.0,101.3,50.0,0.0,0.0,-0.9923664122137404,-1.1755725190839694,0.16793893129770993
4.36,0.0,0.0,0.0,10.152524273073638,9.583989245605467,0.4213794921875,-3.323151904296875,20.0,101.3,50.0,0.0,0.0,-1.0229007633587786,-1.2213740458015268,0.1984732824427481
4.4,0.0,0.0,0.0,10.098244507762121,9.528922607421874,0.38307226562499996,-3.3207577026367185,20.0,101.3,50.0,0.0,0.0,-0.5954198473282443,-1.1603053435114503,0.15267175572519084
4.45,0.0,0.0,0.0,10.123434619762048,9.567229833984374,0.4213794921875,-3.2824504760742186,20.0,101.3,50.0,0.0,0.0,-0.9312977099236641,-1.2061068702290076,0.183206106870229
4.49,0.0,0.0,0.0,10.107459115839957,9.528922607421874,0.3758896606445312,-3.3494881225585935,20.0,101.3,50.0,0.0,0.0,-0.5343511450381679,-1.1297709923664123,0.07633587786259542
4.52,0.0,0.0,0.0,10.107459115839957,9.528922607421874,0.3758896606445312,-3.3494881225585935,20.0,101.3,50.0,0.0,0.0,-0.5343511450381679,-1.1297709923664123,0.07633587786259542
4.53,0.0,0.0,0.0,10.125188651163258,9.543287817382812,0.40222587890625,-3.3590649291992185,20.0,101.3,50.0,0.0,0.0,-0.8702290076335878,-1.2366412213740459,0.183206106870229
4.57,0.0,0.0,0.0,10.116994809164092,9.555258825683593,0.4261678955078125,-3.296815686035156,20.0,101.3,50.0,0.0,0.0,-0.6259541984732825,-1.1297709923664123,0.1984732824427481
4.62,0.0,0.0,0.0,10.098504768895513,9.550470422363281,0.38786066894531246,-3.258508459472656,20.0,101.3,50.0,0.0,0.0,-0.8702290076335878,-1.2366412213740459,0.183206106870229
4.67,0.0,0.0,0.0,10.137029754882597,9.572018237304688,0.3950432739257812,-3.31357509765625,20.0,101.3,50.0,0.0,0.0,-1.0229007633587786,-1.297709923664122,0.1984732824427481
4.71,0.0,0.0,0.0,10.159789314403591,9.588777648925781,0.411802685546875,-3.3327287109375,20.0,101.3,50.0,0.0,0.0,-1.0076335877862594,-1.251908396946565,0.183206106870229
4.74,0.0,0.0,0.0,10.134345954529541,9.564835632324218,0.41898529052734373,-3.323151904296875,20.0,101.3,50.0,0.0,0.0,-0.9465648854961832,-1.1908396946564885,0.13740458015267176
4.79,0.0,0.0,0.0,10.088483419667645,9.521740002441407,0.36631285400390623,-3.31357509765625,20.0,101.3,50.0,0.0,0.0,-0.6412213740458015,-1.1755725190839694,0.10687022900763359
4.8,0.0,0.0,0.0,10.088483419667645,9.521740002441407,0.36631285400390623,-3.31357509765625,20.0,101.3,50.0,0.0,0.0,-0.6412213740458015,-1.1755725190839694,0.10687022900763359
4.84,0.0,0.0,0.0,10.08789020915623,9.519345800781249,0.4285620971679687,-3.3111808959960936,20.0,101.3,50.0,0.0,0.0,-0.916030534351145,-1.1603053435114503,0.2900763358778626
4.87,0.0,0.0,0.0,10.103448740301541,9.540893615722656,0.38786066894531246,-3.3016040893554686,20.0,101.3,50.0,0.0,0.0,-0.7480916030534351,-1.1908396946564885,0.21374045801526717
4.91,0.0,0.0,0.0,10.142232454141022,9.579200842285156,0.41419688720703124,-3.306392492675781,20.0,101.3,50.0,0.0,0.0,-0.6717557251908397,-1.2061068702290076,0.21374045801526717
4.95,0.0,0.0,0.0,10.13980838383045,9.557653027343749,0.4285620971679687,-3.3590649291992185,20.0,101.3,50.0,0.0,0.0,-0.9312977099236641,-1.1908396946564885,0.1984732824427481
4.99,0.0,0.0,0.0,10.160879863693614,9.583989245605467,0.41419688720703124,-3.3494881225585935,20.0,101.3,50.0,0.0,0.0,-0.8854961832061069,-1.1755725190839694,0.183206106870229
5.03,0.0,0.0,0.0,10.108650010018751,9.526528405761718,0.38307226562499996,-3.3590649291992185,20.0,101.3,50.0,0.0,0.0,-0.2900763358778626,-1.083969465648855,0.16793893129770993
5.08,0.0,0.0,0.0,10.13030293568611,9.552864624023437,0.38307226562499996,-3.3494881225585935,20.0,101.3,50.0,0.0,0.0,-1.0381679389312977,-1.1908396946564885,0.16793893129770993
5.13,0.0,0.0,0.0,10.134653647827273,9.56962403564453,0.411802685546875,-3.3111808959960936,20.0,101.3,50.0,0.0,0.0,-0.9618320610687023,-1.1908396946564885,0.12213740458015267
5.17,0.0,0.0,0.0,10.134653647827273,9.56962403564453,0.411802685546875,-3.3111808959960936,20.0,101.3,50.0,0.0,0.0,-0.9618320610687023,-1.1908396946564885,0.12213740458015267
5.17,0.0,0.0,0.0,10.148931033262642,9.583989245605467,0.3902548706054687,-3.3159692993164063,20.0,101.3,50.0,0.0,0.0,-0.8396946564885496,-1.2061068702290076,0.21374045801526717
5.22,0.0,0.0,0.0,10.109735019303677,9.540893615722656,0.44532150878906246,-3.31357509765625,20.0,101.3,50.0,0.0,0.0,-1.0381679389312977,-1.297709923664122,0.24427480916030533
5.26,0.0,0.0,0.0,10.109735019303677,9.540893615722656,0.44532150878906246,-3.31357509765625,20.0,101.3,50.0,0.0,0.0,-1.0381679389312977,-1.297709923664122,0.24427480916030533
5.27,0.0,0.0,0.0,10.189094724695993,9.622296472167967,0.430956298828125,-3.323151904296875,20.0,101.3,50.0,0.0,0.0,-0.8854961832061069,-1.2366412213740459,0.22900763358778625
5.32,0.0,0.0,0.0,10.143196042729905,9.576806640625,0.4165910888671875,-3.3159692993164063,20.0,101.3,50.0,0.0,0.0,-0.8244274809160306,-1.2061068702290076,0.22900763358778625
5.37,0.0,0.0,0.0,10.113129918030939,9.540893615722656,0.41419688720703124,-3.327940307617187,20.0,101.3,50.0,0.0,0.0,-1.0534351145038168,-1.2366412213740459,0.21374045801526717
5.41,0.0,0.0,0.0,10.15580637642487,9.591171850585937,0.39264907226562495,-3.3159692993164063,20.0,101.3,50.0,0.0,0.0,-0.8244274809160306,-1.2366412213740459,0.183206106870229
5.45,0.0,0.0,0.0,10.101137939160834,9.545682019042967,0.39264907226562495,-3.2800562744140622,20.0,101.3,50.0,0.0,0.0,-0.9770992366412213,-1.1145038167938932,0.1984732824427481
5.5,0.0,0.0,0.0,10.169740398435243,9.581595043945311,0.373495458984375,-3.3877953491210935,20.0,101.3,50.0,0.0,0.0,-0.7175572519083969,-1.1908396946564885,0.3053435114503817
5.55,0.0,0.0,0.0,10.085142746378025,9.521740002441407,0.40222587890625,-3.299209887695312,20.0,101.3,50.0,0.0,0.0,-1.0687022900763359,-1.1908396946564885,0.183206106870229
5.59,0.0,0.0,0.0,10.13081812628502,9.564835632324218,0.40940848388671874,-3.31357509765625,20.0,101.3,50.0,0.0,0.0,-0.732824427480916,-1.1603053435114503,0.2595419847328244
5.64,0.0,0.0,0.0,10.184459119434827,9.605537060546874,0.4165910888671875,-3.3590649291992185,20.0,101.3,50.0,0.0,0.0,-0.7175572519083969,-1.1755725190839694,0.183206106870229
5.69,0.0,0.0,0.0,10.164480722314792,9.579200842285156,0.41898529052734373,-3.373430139160156,20.0,101.3,50.0,0.0,0.0,-1.0076335877862594,-1.251908396946565,0.1984732824427481
5.73,0.0,0.0,0.0,10.119616370908732,9.564835632324218,0.40222587890625,-3.2800562744140622,20.0,101.3,50.0,0.0,0.0,-0.7786259541984732,-1.1603053435114503,0.15267175572519084
5.77,0.0,0.0,0.0,10.12361184848529,9.540893615722656,0.41898529052734373,-3.3590649291992185,20.0,101.3,50.0,0.0,0.0,-0.8549618320610687,-1.1603053435114503,0.21374045801526717
5.82,0.0,0.0,0.0,10.130317930620679,9.560047229003906,0.411802685546875,-3.3255461059570313,20.0,101.3,50.0,0.0,0.0,-1.0229007633587786,-1.2671755725190839,0.183206106870229
5.87,0.0,0.0,0.0,10.128908309740787,9.548076220703125,0.40222587890625,-3.356670727539062,20.0,101.3,50.0,0.0,0.0,-0.8854961832061069,-1.1908396946564885,0.1984732824427481
5.87,0.0,0.0,0.0,10.128908309740787,9.548076220703125,0.40222587890625,-3.356670727539062,20.0,101.3,50.0,0.0,0.0,-0.8854961832061069,-1.1908396946564885,0.1984732824427481
5.92,0.0,0.0,0.0,10.123472274047485,9.560047229003906,0.39743747558593745,-3.306392492675781,20.0,101.3,50.0,0.0,0.0,-0.7480916030534351,-1.1603053435114503,0.2595419847328244
5.97,0.0,0.0,0.0,10.144619499658893,9.56962403564453,0.3854664672851562,-3.3446997192382812,20.0,101.3,50.0,0.0,0.0,-1.0381679389312977,-1.1908396946564885,0.2595419847328244
5.98,0.0,0.0,0.0,10.144619499658893,9.56962403564453,0.3854664672851562,-3.3446997192382812,20.0,101.3,50.0,0.0,0.0,-1.0381679389312977,-1.1908396946564885,0.2595419847328244
6.01,0.0,0.0,0.0,10.154880675528322,9.572018237304688,0.36631285400390623,-3.3710359375,20.0,101.3,50.0,0.0,0.0,-0.8396946564885496,-1.1297709923664123,0.10687022900763359
6.06,0.0,0.0,0.0,10.15285061154683,9.567229833984374,0.3902548706054687,-3.375824340820312,20.0,101.3,50.0,0.0,0.0,-0.7938931297709924,-1.2213740458015268,0.183206106870229
6.1,0.0,0.0,0.0,10.121396549565459,9.545682019042967,0.40940848388671874,-3.3399113159179685,20.0,101.3,50.0,0.0,0.0,-0.8549618320610687,-1.1755725190839694,0.21374045801526717
6.15,0.0,0.0,0.0,10.149650008900226,9.595960253906249,0.43574470214843747,-3.277662072753906,20.0,101.3,50.0,0.0,0.0,-1.1297709923664123,-1.1755725190839694,0.22900763358778625
6.17,0.0,0.0,0.0,10.149650008900226,9.595960253906249,0.43574470214843747,-3.277662072753906,20.0,101.3,50.0,0.0,0.0,-1.1297709923664123,-1.1755725190839694,0.22900763358778625
6.19,0.0,0.0,0.0,10.117419743740863,9.53131680908203,0.3902548706054687,-3.3710359375,20.0,101.3,50.0,0.0,0.0,-0.9618320610687023,-1.1755725190839694,0.1984732824427481
6.23,0.0,0.0,0.0,10.113190282888533,9.536105212402344,0.3902548706054687,-3.3446997192382812,20.0,101.3,50.0,0.0,0.0,-0.6106870229007634,-1.1755725190839694,0.21374045801526717
6.28,0.0,0.0,0.0,10.157793243949381,9.593566052246093,0.4429273071289062,-3.308786694335937,20.0,101.3,50.0,0.0,0.0,-1.0076335877862594,-1.2213740458015268,0.183206106870229
6.33,0.0,0.0,0.0,10.15484087978706,9.591171850585937,0.38786066894531246,-3.31357509765625,20.0,101.3,50.0,0.0,0.0,-0.8244274809160306,-1.1755725190839694,0.183206106870229
6.36,0.0,0.0,0.0,10.144345729987677,9.586383447265625,0.41419688720703124,-3.2920272827148436,20.0,101.3,50.0,0.0,0.0,-1.0076335877862594,-1.2366412213740459,0.12213740458015267
6.41,0.0,0.0,0.0,10.16828973475799,9.593566052246093,0.45010991210937495,-3.3399113159179685,20.0,101.3,50.0,0.0,0.0,-0.9770992366412213,-1.1603053435114503,0.13740458015267176
6.45,0.0,0.0,0.0,10.123345438001019,9.555258825683593,0.40940848388671874,-3.318363500976562,20.0,101.3,50.0,0.0,0.0,-0.6717557251908397,-1.099236641221374,0.22900763358778625
6.49,0.0,0.0,0.0,10.127870916244387,9.555258825683593,0.40462008056640625,-3.3327287109375,20.0,101.3,50.0,0.0,0.0,-0.8549618320610687,-1.282442748091603,0.12213740458015267
6.53,0.0,0.0,0.0,10.093007207152132,9.53131680908203,0.411802685546875,-3.294421484375,20.0,101.3,50.0,0.0,0.0,-0.5954198473282443,-1.1603053435114503,0.1984732824427481
6.55,0.0,0.0,0.0,10.093007207152132,9.53131680908203,0.411802685546875,-3.294421484375,20.0,101.3,50.0,0.0,0.0,-0.5954198473282443,-1.1603053435114503,0.1984732824427481
6.58,0.0,0.0,0.0,10.143057868053122,9.581595043945311,0.43574470214843747,-3.299209887695312,20.0,101.3,50.0,0.0,0.0,-1.0229007633587786,-1.2366412213740459,0.15267175572519084
6.63,0.0,0.0,0.0,10.1629396275203,9.603142858886718,0.3854664672851562,-3.303998291015625,20.0,101.3,50.0,0.0,0.0,-0.7175572519083969,-1.1908396946564885,0.2595419847328244
6.67,0.0,0.0,0.0,10.140613927930023,9.586383447265625,0.37828386230468747,-3.284844677734375,20.0,101.3,50.0,0.0,0.0,-0.8854961832061069,-1.2213740458015268,0.21374045801526717
6.72,0.0,0.0,0.0,10.117366486252173,9.543287817382812,0.40462008056640625,-3.3351229125976563,20.0,101.3,50.0,0.0,0.0,-0.7480916030534351,-1.1908396946564885,0.2748091603053435
6.77,0.0,0.0,0.0,10.134384133893082,9.572018237304688,0.4261678955078125,-3.3016040893554686,20.0,101.3,50.0,0.0,0.0,-0.8549618320610687,-1.1450381679389312,0.1984732824427481
6.82,0.0,0.0,0.0,10.155024898503733,9.591171850585937,0.39264907226562495,-3.31357509765625,20.0,101.3,50.0,0.0,0.0,-1.0534351145038168,-1.2061068702290076,0.13740458015267176
6.85,0.0,0.0,0.0,10.181314338879817,9.610325463867188,0.40222587890625,-3.337517114257812,20.0,101.3,50.0,0.0,0.0,-0.5954198473282443,-1.2061068702290076,0.33587786259541985
6.9,0.0,0.0,0.0,10.125745993583632,9.564835632324218,0.39983167724609375,-3.299209887695312,20.0,101.3,50.0,0.0,0.0,-0.8702290076335878,-1.1755725190839694,0.21374045801526717
6.94,0.0,0.0,0.0,10.125745993583632,9.564835632324218,0.39983167724609375,-3.299209887695312,20.0,101.3,50.0,0.0,0.0,-0.8702290076335878,-1.1755725190839694,0.21374045801526717
6.94,0.0,0.0,0.0,10.121962595491693,9.53131680908203,0.42377369384765623,-3.380612744140625,20.0,101.3,50.0,0.0,0.0,-1.083969465648855,-1.2061068702290076,0.24427480916030533
6.97,0.0,0.0,0.0,10.146311678653507,9.567229833984374,0.36391865234375,-3.3590649291992185,20.0,101.3,50.0,0.0,0.0,-0.3969465648854962,-1.083969465648855,0.3816793893129771
7.02,0.0,0.0,0.0,10.180574232777882,9.612719665527344,0.3854664672851562,-3.3303345092773435,20.0,101.3,50.0,0.0,0.0,-1.1145038167938932,-1.2671755725190839,0.24427480916030533
7.05,0.0,0.0,0.0,10.11232898680025,9.562441430664062,0.39264907226562495,-3.265691064453125,20.0,101.3,50.0,0.0,0.0,-0.7480916030534351,-1.1603053435114503,0.15267175572519084
7.06,0.0,0.0,0.0,10.151670549113716,9.576806640625,0.39264907226562495,-3.3446997192382812,20.0,101.3,50.0,0.0,0.0,-0.9312977099236641,-1.2671755725190839,0.183206106870229
7.06,0.0,0.0,0.0,10.151670549113716,9.576806640625,0.39264907226562495,-3.3446997192382812,20.0,101.3,50.0,0.0,0.0,-0.9312977099236641,-1.2671755725190839,0.183206106870229
7.07,0.0,0.0,0.0,10.129095063241586,9.562441430664062,0.38307226562499996,-3.318363500976562,20.0,101.3,50.0,0.0,0.0,-0.9618320610687023,-1.2213740458015268,0.16793893129770993
7.07,0.0,0.0,0.0,10.129095063241586,9.562441430664062,0.38307226562499996,-3.318363500976562,28.4699051026726,101.30531781474046,59.29619460465137,0.0,0.0,-0.9618320610687023,-1.2213740458015268,0.16793893129770993
7.07,0.0,0.0,0.0,10.129095063241586,9.562441430664062,0.38307226562499996,-3.318363500976562,28.4699051026726,101.30531781474046,59.29619460465137,0.0,0.0,-0.9618320610687023,-1.2213740458015268,0.16793893129770993
7.08,0.0,0.0,0.0,10.143600101025502,9.579200842285156,0.40940848388671874,-3.3111808959960936,28.4699051026726,101.30531781474046,59.29619460465137,0.0,0.0,-1.1450381679389312,-1.2366412213740459,0.16793893129770993
7.09,0.0,0.0,0.0,10.15124676594737,9.581595043945311,0.4070142822265625,-3.327940307617187,28.4699051026726,101.30531781474046,59.29619460465137,0.0,0.0,-0.8396946564885496,-1.1145038167938932,0.15267175572519084
7.11,0.0,0.0,0.0,10.13755845696327,9.579200842285156,0.41419688720703124,-3.2920272827148436,28.4699051026726,101.30531781474046,59.29619460465137,0.0,0.0,-0.916030534351145,-1.2366412213740459,0.24427480916030533
7.11,0.0,0.0,0.0,10.13755845696327,9.579200842285156,0.41419688720703124,-3.2920272827148436,28.4699051026726,101.30531781474046,59.29619460465137,0.0,0.0,-0.916030534351145,-1.2366412213740459,0.24427480916030533
7.12,0.0,0.0,0.0,10.113100160574184,9.555258825683593,0.4261678955078125,-3.284844677734375,28.4699051026726,101.30531781474046,59.29619460465137,0.0,0.0,-1.0687022900763359,-1.2366412213740459,0.2748091603053435
7.12,0.0,0.0,0.0,10.113100160574184,9.555258825683593,0.4261678955078125,-3.284844677734375,28.4699051026726,101.30531781474046,59.29619460465137,0.0,0.0,-1.0687022900763359,-1.2366412213740459,0.2748091603053435
7.13,0.0,0.0,0.0,10.11406822492489,9.533711010742186,0.40940848388671874,-3.35188232421875,28.4699051026726,101.30531781474046,59.29619460465137,0.0,0.0,-0.8244274809160306,-1.1603053435114503,0.33587786259541985
7.14,0.0,0.0,0.0,10.050556580573554,9.488221179199218,0.4070142822265625,-3.289633081054687,28.4699051026726,101.30531781474046,59.29619460465137,0.0,0.0,-0.8549618320610687,-1.2213740458015268,0.2748091603053435
7.14,0.0,0.0,0.0,10.050556580573554,9.488221179199218,0.4070142822265625,-3.289633081054687,28.4699051026726,101.30531781474046,59.29619460465137,0.0,0.0,-0.8549618320610687,-1.2213740458015268,0.2748091603053435
7.15,0.0,0.0,0.0,10.11997237504935,9.562441430664062,0.40940848388671874,-3.287238879394531,28.4699051026726,101.30531781474046,59.29619460465137,0.0,0.0,-0.8702290076335878,-1.2061068702290076,0.21374045801526717
7.16,0.0,0.0,0.0,10.11997237504935,9.562441430664062,0.40940848388671874,-3.287238879394531,28.4699051026726,101.30531781474046,59.29619460465137,0.0,0.0,-0.8702290076335878,-1.2061068702290076,0.21374045801526717
7.17,0.0,0.0,0.0,10.11997237504935,9.562441430664062,0.40940848388671874,-3.287238879394531,28.4699051026726,101.30531781474046,59.29619460465137,0.0,0.0,-0.8702290076335878,-1.2061068702290076,0.21374045801526717
7.17,0.0,0.0,0.0,10.142320622063144,9.555258825683593,0.4285620971679687,-3.373430139160156,28.4699051026726,101.30531781474046,59.29619460465137,0.0,0.0,-0.5038167938931297,-1.1450381679389312,0.21374045801526717
7.17,0.0,0.0,0.0,10.142320622063144,9.555258825683593,0.4285620971679687,-3.373430139160156,28.4699051026726,101.30531781474046,59.29619460465137,0.0,0.0,-0.5038167938931297,-1.1450381679389312,0.21374045801526717
7.18,0.0,0.0,0.0,10.124716485383379,9.567229833984374,0.4333505004882812,-3.284844677734375,28.4699051026726,101.30531781474046,59.29619460465137,0.0,0.0,-0.8091603053435115,-1.2061068702290076,0.183206106870229
7.18,0.0,0.0,0.0,10.124716485383379,9.567229833984374,0.4333505004882812,-3.284844677734375,28.4699051026726,101.30531781474046,59.29619460465137,0.0,0.0,-0.8091603053435115,-1.2061068702290076,0.183206106870229
7.18,0.07092655321348618,0.0,0.0,10.124716485383379,9.567229833984374,0.4333505004882812,-3.284844677734375,28.550454104645723,101.30446605990207,59.301498234529,0.0,0.0,-0.8091603053435115,-1.2061068702290076,0.183206106870229
7.19,0.07092655321348618,0.0,0.0,10.112253311673724,9.5384994140625,0.40940848388671874,-3.3327287109375,28.550454104645723,101.30446605990207,59.301498234529,0.0,0.0,-0.8854961832061069,-1.1603053435114503,0.21374045801526717
7.2,0.07092655321348618,0.0,0.0,10.120665655047253,9.560047229003906,0.3854664672851562,-3.299209887695312,28.550454104645723,101.30446605990207,59.301498234529,0.0,0.0,-0.7175572519083969,-1.1755725190839694,0.183206106870229
7.21,0.07092655321348618,0.0,0.0,10.122878565737858,9.545682019042967,0.4261678955078125,-3.342305517578125,28.550454104645723,101.30446605990207,59.301498234529,0.0,0.0,-0.9465648854961832,-1.3129770992366412,0.24427480916030533
7.23,0.07092655321348618,0.0,0.0,10.114905571192066,9.543287817382812,0.40222587890625,-3.327940307617187,28.550454104645723,101.30446605990207,59.301498234529,0.0,0.0,-0.9312977099236641,-1.2671755725190839,0.21374045801526717
7.23,0.07092655321348618,0.0,0.0,10.114905571192066,9.543287817382812,0.40222587890625,-3.327940307617187,28.550454104645723,101.30446605990207,59.301498234529,0.0,0.0,-0.9312977099236641,-1.2671755725190839,0.21374045801526717
7.24,0.07092655321348618,0.0,0.0,10.093185822049678,9.524134204101562,0.40940848388671874,-3.3159692993164063,28.550454104645723,101.30446605990207,59.301498234529,0.0,0.0,-0.6870229007633588,-1.2366412213740459,0.2900763358778626
7.25,0.07092655321348618,0.0,0.0,10.144563842233255,9.574412438964844,0.40940848388671874,-3.327940307617187,28.550454104645723,101.30446605990207,59.301498234529,0.0,0.0,-0.5954198473282443,-1.1755725190839694,0.15267175572519084
7.26,0.07092655321348618,0.0,0.0,10.15792247140879,9.586383447265625,0.4213794921875,-3.3327287109375,28.550454104645723,101.30446605990207,59.301498234529,0.0,0.0,-0.8244274809160306,-1.2366412213740459,0.16793893129770993
7.27,0.07092655321348618,0.0,0.0,10.163709781136184,9.605537060546874,0.4070142822265625,-3.296815686035156,28.550454104645723,101.30446605990207,59.301498234529,0.0,0.0,-1.0687022900763359,-1.2213740458015268,0.16793893129770993
7.27,0.07092655321348618,0.0,0.0,10.163709781136184,9.605537060546874,0.4070142822265625,-3.296815686035156,28.550454104645723,101.30446605990207,59.301498234529,0.0,0.0,-1.0687022900763359,-1.2213740458015268,0.16793893129770993
7.27,0.07092655321348618,0.0,0.0,10.163709781136184,9.605537060546874,0.4070142822265625,-3.296815686035156,28.550454104645723,101.30446605990207,59.301498234529,0.0,0.0,-1.0687022900763359,-1.2213740458015268,0.16793893129770993
7.29,0.07092655321348618,0.0,0.0,10.163709781136184,9.605537060546874,0.4070142822265625,-3.296815686035156,28.550454104645723,101.30446605990207,59.301498234529,0.0,0.0,-1.0687022900763359,-1.2213740458015268,0.16793893129770993
7.29,0.07092655321348618,0.0,0.0,10.122462071459534,9.552864624023437,0.42377369384765623,-3.3207577026367185,28.550454104645723,101.30446605990207,59.301498234529,0.0,0.0,-0.9312977099236641,-1.1908396946564885,0.07633587786259542
7.29,0.04959597296363194,0.0,0.0,10.122462071459534,9.552864624023437,0.42377369384765623,-3.3207577026367185,28.57310852433784,101.30472221758725,59.29132225244183,0.0,0.0,-0.9312977099236641,-1.1908396946564885,0.07633587786259542
7.3,0.04959597296363194,0.0,0.0,10.135466953879828,9.555258825683593,0.4165910888671875,-3.3542765258789062,28.57310852433784,101.30472221758725,59.29132225244183,0.0,0.0,-0.916030534351145,-1.1755725190839694,0.10687022900763359
7.31,0.04959597296363194,0.0,0.0,10.10124036892144,9.526528405761718,0.3758896606445312,-3.337517114257812,28.57310852433784,101.30472221758725,59.29132225244183,0.0,0.0,-0.7175572519083969,-1.1908396946564885,0.16793893129770993
7.32,0.04959597296363194,0.0,0.0,10.138878395442411,9.572018237304688,0.40222587890625,-3.318363500976562,28.57310852433784,101.30472221758725,59.29132225244183,0.0,0.0,-0.8244274809160306,-1.251908396946565,0.13740458015267176
7.32,0.04959597296363194,0.0,0.0,10.138878395442411,9.572018237304688,0.40222587890625,-3.318363500976562,28.57310852433784,101.30472221758725,59.29132225244183,0.0,0.0,-0.8244274809160306,-1.251908396946565,0.13740458015267176
7.33,0.04959597296363194,0.0,0.0,10.154163763805526,9.579200842285156,0.45489831542968745,-3.337517114257812,28.57310852433784,101.30472221758725,59.29132225244183,0.0,0.0,-1.0076335877862594,-1.2213740458015268,0.183206106870229
7.35,0.04959597296363194,0.0,0.0,10.111521756251811,9.528922607421874,0.37828386230468747,-3.361459130859375,28.57310852433784,101.30472221758725,59.29132225244183,0.0,0.0,-0.7786259541984732,-1.2213740458015268,0.12213740458015267
7.36,0.04959597296363194,0.0,0.0,10.089919424254282,9.533711010742186,0.3950432739257812,-3.2800562744140622,28.57310852433784,101.30472221758725,59.29132225244183,0.0,0.0,-0.916030534351145,-1.1908396946564885,0.0916030534351145
7.37,0.04959597296363194,0.0,0.0,10.127583109858561,9.562441430664062,0.42377369384765623,-3.308786694335937,28.57310852433784,101.30472221758725,59.29132225244183,0.0,0.0,-0.7938931297709924,-1.2061068702290076,0.15267175572519084
7.37,0.04959597296363194,0.0,0.0,10.127583109858561,9.562441430664062,0.42377369384765623,-3.308786694335937,28.57310852433784,101.30472221758725,59.29132225244183,0.0,0.0,-0.7938931297709924,-1.2061068702290076,0.15267175572519084
7.37,0.04959597296363194,0.0,0.0,10.127583109858561,9.562441430664062,0.42377369384765623,-3.308786694335937,28.57310852433784,101.30472221758725,59.29132225244183,0.0,0.0,-0.7938931297709924,-1.2061068702290076,0.15267175572519084
7.38,0.04959597296363194,0.0,0.0,10.155841652991185,9.579200842285156,0.3806780639648437,-3.35188232421875,28.57310852433784,101.30472221758725,59.29132225244183,0.0,0.0,-0.9770992366412213,-1.2671755725190839,0.061068702290076333
7.39,0.04959597296363194,0.0,0.0,10.166726946484427,9.617508068847656,0.39264907226562495,-3.2728736694335936,28.57310852433784,101.30472221758725,59.29132225244183,0.0,0.0,-0.9770992366412213,-1.2061068702290076,0.21374045801526717
7.4,0.09758511831891137,4.798914535527619,0.0,10.166726946484427,9.617508068847656,0.39264907226562495,-3.2728736694335936,28.558634866659666,101.30414591949705,59.26878335093717,0.0,0.0,-0.9770992366412213,-1.2061068702290076,0.21374045801526717
7.41,0.09758511831891137,0.0,0.0,10.116070939810074,9.560047229003906,0.4261678955078125,-3.2800562744140622,28.558634866659666,101.30414591949705,59.26878335093717,0.0,0.0,-0.9618320610687023,-1.1297709923664123,0.3053435114503817
7.42,0.09758511831891137,0.0,0.0,10.09233730213548,9.53131680908203,0.3950432739257812,-3.294421484375,28.558634866659666,101.30414591949705,59.26878335093717,0.0,0.0,-0.732824427480916,-1.2061068702290076,0.2595419847328244
7.42,0.09758511831891137,0.0,0.0,10.09233730213548,9.53131680908203,0.3950432739257812,-3.294421484375,28.558634866659666,101.30414591949705,59.26878335093717,0.0,0.0,-0.732824427480916,-1.2061068702290076,0.2595419847328244
7.43,0.09758511831891137,0.0,0.0,10.104980188218207,9.536105212402344,0.40222587890625,-3.318363500976562,28.558634866659666,101.30414591949705,59.26878335093717,0.0,0.0,-0.6259541984732825,-1.1908396946564885,0.12213740458015267
7.44,0.09758511831891137,0.0,0.0,10.149480859355133,9.588777648925781,0.44532150878906246,-3.296815686035156,28.558634866659666,101.30414591949705,59.26878335093717,0.0,0.0,-0.5648854961832062,-1.1297709923664123,0.24427480916030533
7.45,0.09758511831891137,0.0,0.0,10.13804529085783,9.579200842285156,0.4070142822265625,-3.294421484375,28.558634866659666,101.30414591949705,59.26878335093717,0.0,0.0,-0.9618320610687023,-1.2366412213740459,0.16793893129770993
7.47,0.09758511831891137,0.0,0.0,10.13804529085783,9.579200842285156,0.4070142822265625,-3.294421484375,28.558634866659666,101.30414591949705,59.26878335093717,0.0,0.0,-0.9618320610687023,-1.2366412213740459,0.16793893129770993
7.47,0.09758511831891137,0.0,0.0,10.147361026852522,9.581595043945311,0.38786066894531246,-3.318363500976562,28.558634866659666,101.30414591949705,59.26878335093717,0.0,0.0,-1.1145038167938932,-1.1908396946564885,0.183206106870229
7.5,0.09758511831891137,0.0,0.0,10.136216574225502,9.564835632324218,0.4261678955078125,-3.327940307617187,28.558634866659666,101.30414591949705,59.26878335093717,0.0,0.0,-0.44274809160305345,-1.0534351145038168,0.22900763358778625
7.55,0.09758511831891137,0.0,0.0,10.137869728019666,9.586383447265625,0.4261678955078125,-3.2704794677734372,28.558634866659666,101.30414591949705,59.26878335093717,0.0,0.0,-0.7480916030534351,-1.099236641221374,0.15267175572519084
7.6,0.09758511831891137,0.0,0.0,10.162218489737272,9.576806640625,0.37828386230468747,-3.3782185424804685,28.558634866659666,101.30414591949705,59.26878335093717,0.0,0.0,-0.8396946564885496,-1.2213740458015268,0.24427480916030533
7.65,0.09758511831891137,0.0,0.0,10.16626263030592,9.583989245605467,0.3902548706054687,-3.3686417358398435,28.558634866659666,101.30414591949705,59.26878335093717,0.0,0.0,-0.8396946564885496,-1.2213740458015268,0.15267175572519084
7.7,0.09758511831891137,0.0,0.0,10.09553109170359,9.540893615722656,0.40462008056640625,-3.27526787109375,28.558634866659666,101.30414591949705,59.26878335093717,0.0,0.0,-0.7938931297709924,-1.1450381679389312,0.13740458015267176
7.74,0.09758511831891137,0.0,0.0,10.148155521687512,9.586383447265625,0.430956298828125,-3.3016040893554686,28.558634866659666,101.30414591949705,59.26878335093717,0.0,0.0,-0.8549618320610687,-1.2366412213740459,0.21374045801526717
7.78,0.09758511831891137,0.0,0.0,10.117356004692125,9.545682019042967,0.4070142822265625,-3.327940307617187,28.558634866659666,101.30414591949705,59.26878335093717,0.0,0.0,-0.9007633587786259,-1.1755725190839694,0.21374045801526717
7.8,0.09758511831891137,0.0,0.0,10.17609556965834,9.603142858886718,0.4213794921875,-3.3399113159179685,28.558634866659666,101.30414591949705,59.26878335093717,0.0,0.0,-0.6412213740458015,-1.1145038167938932,0.13740458015267176
7.84,0.09758511831891137,0.0,0.0,10.169343861032994,9.603142858886718,0.3687070556640625,-3.3255461059570313,28.558634866659666,101.30414591949705,59.26878335093717,0.0,0.0,-1.0229007633587786,-1.1908396946564885,0.22900763358778625
7.89,0.09758511831891137,0.0,0.0,10.143590211678946,9.576806640625,0.4070142822265625,-3.318363500976562,28.558634866659666,101.30414591949705,59.26878335093717,0.0,0.0,-0.8244274809160306,-1.1908396946564885,0.22900763358778625
7.94,0.09758511831891137,0.0,0.0,10.133760236782663,9.564835632324218,0.42377369384765623,-3.3207577026367185,28.558634866659666,101.30414591949705,59.26878335093717,0.0,0.0,-1.0381679389312977,-1.2366412213740459,0.10687022900763359
7.97,0.09758511831891137,0.0,0.0,10.125038341784254,9.555258825683593,0.39264907226562495,-3.3255461059570313,28.558634866659666,101.30414591949705,59.26878335093717,0.0,0.0,-0.9007633587786259,-1.2213740458015268,0.16793893129770993
8.01,0.09758511831891137,0.0,0.0,10.139662531109115,9.56962403564453,0.39983167724609375,-3.327940307617187,28.558634866659666,101.30414591949705,59.26878335093717,0.0,0.0,-0.6259541984732825,-1.099236641221374,0.1984732824427481
8.01,0.03780005683412746,0.0,0.0,10.139662531109115,9.56962403564453,0.39983167724609375,-3.327940307617187,28.37865827278056,101.30486387427631,59.1942926518218,0.0,0.0,-0.6259541984732825,-1.099236641221374,0.1984732824427481
8.01,0.03780005683412746,0.0,0.0,10.139662531109115,9.56962403564453,0.39983167724609375,-3.327940307617187,28.37865827278056,101.30486387427631,59.1942926518218,0.0,0.0,-0.6259541984732825,-1.099236641221374,0.1984732824427481
8.04,0.03780005683412746,0.0,0.0,10.117285466343432,9.562441430664062,0.3591302490234375,-3.284844677734375,28.37865827278056,101.30486387427631,59.1942926518218,0.0,0.0,-1.0229007633587786,-1.1450381679389312,0.1984732824427481
8.09,0.03780005683412746,0.0,0.0,10.139886962527747,9.572018237304688,0.38786066894531246,-3.323151904296875,28.37865827278056,101.30486387427631,59.1942926518218,0.0,0.0,-1.1755725190839694,-1.2213740458015268,0.15267175572519084
8.13,0.03780005683412746,0.0,0.0,10.100061086989633,9.53131680908203,0.411802685546875,-3.3159692993164063,28.37865827278056,101.30486387427631,59.1942926518218,0.0,0.0,-1.0076335877862594,-1.1755725190839694,0.22900763358778625
8.17,0.03780005683412746,0.0,0.0,10.100061086989633,9.53131680908203,0.411802685546875,-3.3159692993164063,28.37865827278056,101.30486387427631,59.1942926518218,0.0,0.0,-1.0076335877862594,-1.1755725190839694,0.22900763358778625
8.18,0.03780005683412746,0.0,0.0,10.143306807164747,9.572018237304688,0.3950432739257812,-3.3327287109375,28.37865827278056,101.30486387427631,59.1942926518218,0.0,0.0,-0.9465648854961832,-1.2061068702290076,0.2748091603053435
8.22,0.03780005683412746,0.0,0.0,10.115312459613634,9.567229833984374,0.39264907226562495,-3.2609026611328122,28.37865827278056,101.30486387427631,59.1942926518218,0.0,0.0,-1.0076335877862594,-1.297709923664122,0.24427480916030533
8.26,0.03780005683412746,0.0,0.0,10.181346712015191,9.598354455566406,0.4285620971679687,-3.3686417358398435,28.37865827278056,101.30486387427631,59.1942926518218,0.0,0.0,-0.8702290076335878,-1.2061068702290076,0.2595419847328244
8.31,0.03780005683412746,0.0,0.0,10.150519150253391,9.588777648925781,0.4333505004882812,-3.3016040893554686,28.37865827278056,101.30486387427631,59.1942926518218,0.0,0.0,-0.8396946564885496,-1.251908396946565,0.22900763358778625
8.36,0.03780005683412746,0.0,0.0,10.158233118466109,9.586383447265625,0.3687070556640625,-3.3399113159179685,28.37865827278056,101.30486387427631,59.1942926518218,0.0,0.0,-0.8549618320610687,-1.1603053435114503,0.183206106870229
8.4,0.03780005683412746,0.0,0.0,10.130269267733285,9.56962403564453,0.39983167724609375,-3.299209887695312,28.37865827278056,101.30486387427631,59.1942926518218,0.0,0.0,-1.0381679389312977,-1.1755725190839694,0.21374045801526717
8.45,0.03780005683412746,0.0,0.0,10.156078708338466,9.586383447265625,0.3950432739257812,-3.3303345092773435,28.37865827278056,101.30486387427631,59.1942926518218,0.0,0.0,-1.0534351145038168,-1.2366412213740459,0.1984732824427481
8.5,0.03780005683412746,0.0,0.0,10.118144640936153,9.545682019042967,0.4261678955078125,-3.327940307617187,28.37865827278056,101.30486387427631,59.1942926518218,0.0,0.0,-0.6870229007633588,-1.1755725190839694,0.33587786259541985
8.55,0.03780005683412746,0.0,0.0,10.113543679309107,9.557653027343749,0.4381389038085937,-3.277662072753906,28.37865827278056,101.30486387427631,59.1942926518218,0.0,0.0,-0.8854961832061069,-1.2213740458015268,0.22900763358778625
8.57,-0.014282691214966281,-2.6041374024547426,0.0,10.113543679309107,9.557653027343749,0.4381389038085937,-3.277662072753906,28.49004234646036,101.30548933584986,59.156706517472244,0.0,0.0,-0.8854961832061069,-1.2213740458015268,0.22900763358778625
8.58,-0.014282691214966281,0.0,0.0,10.147198618011354,9.567229833984374,0.38786066894531246,-3.3590649291992185,28.49004234646036,101.30548933584986,59.156706517472244,0.0,0.0,-0.9007633587786259,-1.1755725190839694,0.1984732824427481
8.63,-0.014282691214966281,0.0,0.0,10.158784980272532,9.581595043945311,0.45489831542968745,-3.3446997192382812,28.49004234646036,101.30548933584986,59.156706517472244,0.0,0.0,-0.732824427480916,-1.1603053435114503,0.183206106870229
8.68,-0.014282691214966281,0.0,0.0,10.193337959982001,9.629479077148437,0.4261678955078125,-3.3159692993164063,28.49004234646036,101.30548933584986,59.156706517472244,0.0,0.0,-0.8549618320610687,-1.1755725190839694,0.12213740458015267
8.73,-0.014282691214966281,0.0,0.0,10.151732943408927,9.579200842285156,0.4165910888671875,-3.3351229125976563,28.49004234646036,101.30548933584986,59.156706517472244,0.0,0.0,-1.0229007633587786,-1.1297709923664123,0.12213740458015267
8.78,-0.014282691214966281,0.0,0.0,10.108616837009214,9.543287817382812,0.4213794921875,-3.306392492675781,28.49004234646036,101.30548933584986,59.156706517472244,0.0,0.0,-0.9770992366412213,-1.2061068702290076,0.22900763358778625
8.82,-0.014282691214966281,0.0,0.0,10.127961473100967,9.557653027343749,0.40940848388671874,-3.3255461059570313,28.49004234646036,101.30548933584986,59.156706517472244,0.0,0.0,-1.1450381679389312,-1.2213740458015268,0.12213740458015267
8.87,-0.014282691214966281,0.0,0.0,10.10462989600903,9.526528405761718,0.40222587890625,-3.3446997192382812,28.49004234646036,101.30548933584986,59.156706517472244,0.0,0.0,-0.9923664122137404,-1.2213740458015268,0.1984732824427481
8.91,-0.014282691214966281,0.0,0.0,10.150371757252593,9.583989245605467,0.4070142822265625,-3.318363500976562,28.49004234646036,101.30548933584986,59.156706517472244,0.0,0.0,-0.6259541984732825,-1.1145038167938932,0.183206106870229
8.94,-0.014282691214966281,0.0,0.0,10.127002095251543,9.567229833984374,0.373495458984375,-3.299209887695312,28.49004234646036,101.30548933584986,59.156706517472244,0.0,0.0,-0.8091603053435115,-1.1908396946564885,0.24427480916030533
8.98,-0.014282691214966281,0.0,0.0,10.155281446640245,9.588777648925781,0.4165910888671875,-3.318363500976562,28.49004234646036,101.30548933584986,59.156706517472244,0.0,0.0,-0.8702290076335878,-1.1908396946564885,0.15267175572519084
9.03,-0.014282691214966281,0.0,0.0,10.137900826328515,9.56962403564453,0.4333505004882812,-3.318363500976562,28.49004234646036,101.30548933584986,59.156706517472244,0.0,0.0,-0.9770992366412213,-1.2366412213740459,0.22900763358778625
9.06,-0.014282691214966281,0.0,0.0,10.120945162593358,9.562441430664062,0.41419688720703124,-3.289633081054687,28.49004234646036,101.30548933584986,59.156706517472244,0.0,0.0,-0.9770992366412213,-1.2061068702290076,0.16793893129770993
9.07,-0.014282691214966281,0.0,0.0,10.120945162593358,9.562441430664062,0.41419688720703124,-3.289633081054687,28.49004234646036,101.30548933584986,59.156706517472244,0.0,0.0,-0.9770992366412213,-1.2061068702290076,0.16793893129770993
9.11,-0.014282691214966281,0.0,0.0,10.084122735434976,9.528922607421874,0.40222587890625,-3.27526787109375,28.49004234646036,101.30548933584986,59.156706517472244,0.0,0.0,-0.7633587786259542,-1.1450381679389312,0.13740458015267176
9.16,-0.014282691214966281,0.0,0.0,10.09886094965171,9.543287817382812,0.411802685546875,-3.277662072753906,28.49004234646036,101.30548933584986,59.156706517472244,0.0,0.0,-0.8854961832061069,-1.2366412213740459,0.2595419847328244
9.17,-0.014282691214966281,0.0,0.0,10.09886094965171,9.543287817382812,0.411802685546875,-3.277662072753906,28.49004234646036,101.30548933584986,59.156706517472244,0.0,0.0,-0.8854961832061069,-1.2366412213740459,0.2595419847328244
9.21,-0.014282691214966281,0.0,0.0,10.127913364871725,9.567229833984374,0.39743747558593745,-3.299209887695312,28.49004234646036,101.30548933584986,59.156706517472244,0.0,0.0,-0.7633587786259542,-1.1908396946564885,0.183206106870229
9.26,-0.014282691214966281,0.0,0.0,10.150654399802121,9.579200842285156,0.40940848388671874,-3.3327287109375,28.49004234646036,101.30548933584986,59.156706517472244,0.0,0.0,-0.7786259541984732,-1.2671755725190839,0.24427480916030533
9.3,-0.014282691214966281,0.0,0.0,10.10449629958717,9.53131680908203,0.40462008056640625,-3.3303345092773435,28.49004234646036,101.30548933584986,59.156706517472244,0.0,0.0,-0.7175572519083969,-1.1297709923664123,0.12213740458015267
9.31,-0.01972408937372938,-0.5441398158763215,0.0,10.10449629958717,9.53131680908203,0.40462008056640625,-3.3303345092773435,28.559893445496527,101.30555468176536,59.106122479608345,0.0,0.0,-0.7175572519083969,-1.1297709923664123,0.12213740458015267
9.34,-0.01972408937372938,0.0,0.0,9.93085064964009,9.380482104492186,0.38786066894531246,-3.23696064453125,28.559893445496527,101.30555468176536,59.106122479608345,0.0,0.0,-1.0534351145038168,-1.1908396946564885,0.1984732824427481
9.39,-0.01972408937372938,0.0,0.0,10.139771920846803,9.564835632324218,0.43574470214843747,-3.337517114257812,28.559893445496527,101.30555468176536,59.106122479608345,0.0,0.0,-1.0687022900763359,-1.2213740458015268,0.24427480916030533
9.44,-0.01972408937372938,0.0,0.0,10.168870081432718,9.586383447265625,0.41898529052734373,-3.366247534179687,28.559893445496527,101.30555468176536,59.106122479608345,0.0,0.0,-0.9007633587786259,-1.251908396946565,0.2748091603053435
9.47,-0.01972408937372938,0.0,0.0,10.126683414536044,9.555258825683593,0.41419688720703124,-3.327940307617187,28.559893445496527,101.30555468176536,59.106122479608345,0.0,0.0,-0.6870229007633588,-1.2061068702290076,0.1984732824427481
9.52,-0.01972408937372938,0.0,0.0,10.121170575417011,9.557653027343749,0.3758896606445312,-3.308786694335937,28.559893445496527,101.30555468176536,59.106122479608345,0.0,0.0,-0.7175572519083969,-1.1908396946564885,0.183206106870229
9.56,-0.01972408937372938,0.0,0.0,10.158055647332413,9.591171850585937,0.4644751220703125,-3.31357509765625,28.559893445496527,101.30555468176536,59.106122479608345,0.0,0.0,-1.0381679389312977,-1.297709923664122,0.2595419847328244
9.6,-0.01972408937372938,0.0,0.0,10.155016995927985,9.586383447265625,0.38786066894531246,-3.327940307617187,28.559893445496527,101.30555468176536,59.106122479608345,0.0,0.0,-0.9923664122137404,-1.2213740458015268,0.16793893129770993
9.65,-0.01972408937372938,0.0,0.0,10.09018359275103,9.53131680908203,0.39983167724609375,-3.287238879394531,28.559893445496527,101.30555468176536,59.106122479608345,0.0,0.0,-1.0687022900763359,-1.282442748091603,0.10687022900763359
9.7,-0.01972408937372938,0.0,0.0,10.133631266859505,9.574412438964844,0.4285620971679687,-3.2920272827148436,28.559893445496527,101.30555468176536,59.106122479608345,0.0,0.0,-0.7633587786259542,-1.1145038167938932,0.13740458015267176
9.75,-0.01972408937372938,0.0,0.0,10.130422894541203,9.550470422363281,0.38307226562499996,-3.356670727539062,28.559893445496527,101.30555468176536,59.106122479608345,0.0,0.0,-0.9770992366412213,-1.1603053435114503,0.13740458015267176
9.78,-0.01972408937372938,0.0,0.0,10.13459793567093,9.562441430664062,0.38307226562499996,-3.3351229125976563,28.559893445496527,101.30555468176536,59.106122479608345,0.0,0.0,-0.6564885496183206,-1.1450381679389312,0.22900763358778625
9.83,-0.01972408937372938,0.0,0.0,10.149097932775152,9.583989245605467,0.41419688720703124,-3.31357509765625,28.559893445496527,101.30555468176536,59.106122479608345,0.0,0.0,-0.9312977099236641,-1.2061068702290076,0.12213740458015267
9.88,-0.01972408937372938,0.0,0.0,10.110002071930174,9.545682019042967,0.39983167724609375,-3.306392492675781,28.559893445496527,101.30555468176536,59.106122479608345,0.0,0.0,-0.6259541984732825,-1.2213740458015268,0.183206106870229
9.88,0.08272792723107214,0.0,0.0,10.110002071930174,9.545682019042967,0.39983167724609375,-3.306392492675781,28.446936064434702,101.30432433812013,59.03496654028869,0.0,0.0,-0.6259541984732825,-1.2213740458015268,0.183206106870229
9.92,0.08272792723107214,0.0,0.0,10.10519801563053,9.5384994140625,0.34715924072265625,-3.318363500976562,28.446936064434702,101.30432433812013,59.03496654028869,0.0,0.0,-0.9770992366412213,-1.2366412213740459,0.21374045801526717
9.95,0.08272792723107214,0.0,0.0,10.101675045434954,9.550470422363281,0.40940848388671874,-3.265691064453125,28.446936064434702,101.30432433812013,59.03496654028869,0.0,0.0,-0.732824427480916,-1.1755725190839694,0.15267175572519084
9.99,0.08272792723107214,0.0,0.0,10.191869001577015,9.60793126220703,0.4070142822265625,-3.375824340820312,28.446936064434702,101.30432433812013,59.03496654028869,0.0,0.0,-0.5648854961832062,-1.2061068702290076,0.21374045801526717
10.04,0.08272792723107214,0.0,0.0,10.108714087489632,9.524134204101562,0.4213794921875,-3.361459130859375,28.446936064434702,101.30432433812013,59.03496654028869,0.0,0.0,-1.1145038167938932,-1.1908396946564885,0.21374045801526717
10.08,0.08272792723107214,0.0,0.0,10.114022034263927,9.560047229003906,0.41419688720703124,-3.27526787109375,28.446936064434702,101.30432433812013,59.03496654028869,0.0,0.0,-1.0076335877862594,-1.2061068702290076,0.16793893129770993
10.13,0.08272792723107214,0.0,0.0,10.102644488271107,9.516951599121093,0.41898529052734373,-3.3638533325195312,28.446936064434702,101.30432433812013,59.03496654028869,0.0,0.0,-1.0687022900763359,-1.2061068702290076,0.2595419847328244
10.16,0.08272792723107214,0.0,0.0,10.102644488271107,9.516951599121093,0.41898529052734373,-3.3638533325195312,28.446936064434702,101.30432433812013,59.03496654028869,0.0,0.0,-1.0687022900763359,-1.2061068702290076,0.2595419847328244
10.17,0.08272792723107214,0.0,0.0,10.143808905263308,9.574412438964844,0.3902548706054687,-3.327940307617187,28.446936064434702,101.30432433812013,59.03496654028869,0.0,0.0,-0.7175572519083969,-1.0687022900763359,0.1984732824427481
10.17,0.08272792723107214,0.0,0.0,10.143808905263308,9.574412438964844,0.3902548706054687,-3.327940307617187,28.446936064434702,101.30432433812013,59.03496654028869,0.0,0.0,-0.7175572519083969,-1.0687022900763359,0.1984732824427481
10.21,0.08272792723107214,0.0,0.0,10.107725661486384,9.540893615722656,0.4165910888671875,-3.3111808959960936,28.446936064434702,101.30432433812013,59.03496654028869,0.0,0.0,-0.8549618320610687,-1.1603053435114503,0.10687022900763359
10.25,0.08272792723107214,0.0,0.0,10.121093833675113,9.552864624023437,0.4285620971679687,-3.3159692993164063,28.446936064434702,101.30432433812013,59.03496654028869,0.0,0.0,-1.1450381679389312,-1.1755725190839694,0.1984732824427481
10.29,0.08272792723107214,0.0,0.0,10.124685063497903,9.564835632324218,0.430956298828125,-3.2920272827148436,28.446936064434702,101.30432433812013,59.03496654028869,0.0,0.0,-0.8091603053435115,-1.1450381679389312,0.15267175572519084
10.34,0.08272792723107214,0.0,0.0,10.15631237176575,9.591171850585937,0.4429273071289062,-3.3111808959960936,28.446936064434702,101.30432433812013,59.03496654028869,0.0,0.0,-0.9312977099236641,-1.1908396946564885,0.12213740458015267
10.39,0.08272792723107214,0.0,0.0,10.080757303332847,9.519345800781249,0.46208092041015625,-3.284844677734375,28.446936064434702,101.30432433812013,59.03496654028869,0.0,0.0,-0.7633587786259542,-1.1755725190839694,0.21374045801526717
10.43,0.08272792723107214,0.0,0.0,10.133561124633255,9.564835632324218,0.41898529052734373,-3.3207577026367185,28.446936064434702,101.30432433812013,59.03496654028869,0.0,0.0,-1.0076335877862594,-1.2213740458015268,0.183206106870229
10.48,0.08272792723107214,0.0,0.0,10.129608051729683,9.564835632324218,0.37828386230468747,-3.31357509765625,28.446936064434702,101.30432433812013,59.03496654028869,0.0,0.0,-0.732824427480916,-1.251908396946565,0.16793893129770993
10.53,0.08272792723107214,0.0,0.0,10.158805293631982,9.600748657226562,0.39743747558593745,-3.296815686035156,28.446936064434702,101.30432433812013,59.03496654028869,0.0,0.0,-0.7480916030534351,-1.1908396946564885,0.1984732824427481
10.58,0.08272792723107214,0.0,0.0,10.107257217012167,9.560047229003906,0.39983167724609375,-3.2561142578125,28.446936064434702,101.30432433812013,59.03496654028869,0.0,0.0,-0.6106870229007634,-1.1145038167938932,0.1984732824427481
10.61,0.08272792723107214,0.0,0.0,10.146311678653507,9.557653027343749,0.39264907226562495,-3.383006945800781,28.446936064434702,101.30432433812013,59.03496654028869,0.0,0.0,-0.24427480916030533,-1.0229007633587786,0.3053435114503817
10.62,0.1438715382916378,6.114361106056696,0.0,10.146311678653507,9.557653027343749,0.39264907226562495,-3.383006945800781,28.62282240960394,101.30359007182477,59.02060615653944,0.0,0.0,-0.24427480916030533,-1.0229007633587786,0.3053435114503817
10.66,0.1438715382916378,0.0,0.0,10.138602774594688,9.567229833984374,0.3902548706054687,-3.3327287109375,28.62282240960394,101.30359007182477,59.02060615653944,0.0,0.0,-0.8854961832061069,-1.1908396946564885,0.24427480916030533
10.7,0.1438715382916378,0.0,0.0,10.101393586015075,9.550470422363281,0.4213794921875,-3.2632968627929686,28.62282240960394,101.30359007182477,59.02060615653944,0.0,0.0,-0.9312977099236641,-1.1755725190839694,0.21374045801526717
10.75,0.1438715382916378,0.0,0.0,10.105900533769388,9.536105212402344,0.3854664672851562,-3.323151904296875,28.62282240960394,101.30359007182477,59.02060615653944,0.0,0.0,-0.7633587786259542,-1.1297709923664123,0.15267175572519084
10.79,0.1438715382916378,0.0,0.0,10.092928547442737,9.528922607421874,0.38786066894531246,-3.303998291015625,28.62282240960394,101.30359007182477,59.02060615653944,0.0,0.0,-0.9007633587786259,-1.251908396946565,0.21374045801526717
10.83,0.1438715382916378,0.0,0.0,10.148121912963383,9.56962403564453,0.41419688720703124,-3.35188232421875,28.62282240960394,101.30359007182477,59.02060615653944,0.0,0.0,-0.6717557251908397,-1.1450381679389312,0.16793893129770993
10.87,0.1438715382916378,0.0,0.0,10.105577216994009,9.536105212402344,0.39743747558593745,-3.3207577026367185,28.62282240960394,101.30359007182477,59.02060615653944,0.0,0.0,-1.083969465648855,-1.3129770992366412,0.0916030534351145
10.91,0.1438715382916378,0.0,0.0,10.096834667025743,9.53131680908203,0.4285620971679687,-3.303998291015625,28.62282240960394,101.30359007182477,59.02060615653944,0.0,0.0,-0.4732824427480916,-1.1603053435114503,0.24427480916030533
10.96,0.1438715382916378,0.0,0.0,10.14525318171137,9.572018237304688,0.42377369384765623,-3.3351229125976563,28.62282240960394,101.30359007182477,59.02060615653944,0.0,0.0,-0.7022900763358778,-1.1755725190839694,0.21374045801526717
11.01,0.1438715382916378,0.0,0.0,10.100474248590338,9.5384994140625,0.40940848388671874,-3.296815686035156,28.62282240960394,101.30359007182477,59.02060615653944,0.0,0.0,-0.8396946564885496,-1.1603053435114503,0.24427480916030533
11.06,0.1438715382916378,0.0,0.0,10.118515142775841,9.528922607421874,0.4333505004882812,-3.375824340820312,28.62282240960394,101.30359007182477,59.02060615653944,0.0,0.0,-0.916030534351145,-1.2061068702290076,0.2595419847328244
11.11,0.1438715382916378,0.0,0.0,10.12767366928857,9.557653027343749,0.40222587890625,-3.3255461059570313,28.62282240960394,101.30359007182477,59.02060615653944,0.0,0.0,-0.7938931297709924,-1.1755725190839694,0.22900763358778625
11.15,0.1438715382916378,0.0,0.0,10.146167614304915,9.574412438964844,0.3902548706054687,-3.3351229125976563,28.62282240960394,101.30359007182477,59.02060615653944,0.0,0.0,-1.083969465648855,-1.2061068702290076,0.1984732824427481
11.17,0.1438715382916378,0.0,0.0,10.146167614304915,9.574412438964844,0.3902548706054687,-3.3351229125976563,28.62282240960394,101.30359007182477,59.02060615653944,0.0,0.0,-1.083969465648855,-1.2061068702290076,0.1984732824427481
11.19,0.1438715382916378,0.0,0.0,10.142531430718522,9.579200842285156,0.40222587890625,-3.308786694335937,28.62282240960394,101.30359007182477,59.02060615653944,0.0,0.0,-0.7633587786259542,-1.1755725190839694,0.24427480916030533
11.23,0.1438715382916378,0.0,0.0,10.142531430718522,9.579200842285156,0.40222587890625,-3.308786694335937,28.62282240960394,101.30359007182477,59.02060615653944,0.0,0.0,-0.7633587786259542,-1.1755725190839694,0.24427480916030533
11.24,0.1438715382916378,0.0,0.0,10.180313254425304,9.586383447265625,0.4261678955078125,-3.399766357421875,28.62282240960394,101.30359007182477,59.02060615653944,0.0,0.0,-0.6106870229007634,-1.1755725190839694,0.0916030534351145
11.29,0.1438715382916378,0.0,0.0,10.18348789598897,9.612719665527344,0.4381389038085937,-3.3327287109375,28.62282240960394,101.30359007182477,59.02060615653944,0.0,0.0,-0.9618320610687023,-1.1908396946564885,0.2595419847328244
11.33,0.1438715382916378,0.0,0.0,10.126322834741858,9.562441430664062,0.430956298828125,-3.303998291015625,28.62282240960394,101.30359007182477,59.02060615653944,0.0,0.0,-0.7938931297709924,-1.1297709923664123,0.10687022900763359
11.34,0.30376792744366554,15.989638915203116,0.0,10.126322834741858,9.562441430664062,0.430956298828125,-3.303998291015625,28.56115202435085,101.30166991562548,58.97070270168218,0.0,0.0,-0.7938931297709924,-1.1297709923664123,0.10687022900763359
11.38,0.30376792744366554,0.0,0.0,10.151629046813577,9.593566052246093,0.4261678955078125,-3.2920272827148436,28.56115202435085,101.30166991562548,58.97070270168218,0.0,0.0,-0.5648854961832062,-1.1450381679389312,0.2748091603053435
11.43,0.30376792744366554,0.0,0.0,10.106900764994506,9.555258825683593,0.38786066894531246,-3.2704794677734372,28.56115202435085,101.30166991562548,58.97070270168218,0.0,0.0,-0.8396946564885496,-1.1603053435114503,0.0916030534351145
11.48,0.30376792744366554,0.0,0.0,10.1468294459843,9.576806640625,0.4285620971679687,-3.3255461059570313,28.56115202435085,101.30166991562548,58.97070270168218,0.0,0.0,-0.9007633587786259,-1.1908396946564885,0.22900763358778625
11.53,0.30376792744366554,0.0,0.0,10.18349774659029,9.586383447265625,0.3854664672851562,-3.414131567382812,28.56115202435085,101.30166991562548,58.97070270168218,0.0,0.0,-0.8091603053435115,-1.1603053435114503,0.183206106870229
11.56,0.30376792744366554,0.0,0.0,10.10036925720285,9.552864624023437,0.39743747558593745,-3.2561142578125,28.56115202435085,101.30166991562548,58.97070270168218,0.0,0.0,-0.6564885496183206,-1.1908396946564885,0.21374045801526717
11.6,0.30376792744366554,0.0,0.0,10.123879950577102,9.562441430664062,0.4285620971679687,-3.296815686035156,28.56115202435085,101.30166991562548,58.97070270168218,0.0,0.0,-0.9007633587786259,-1.2213740458015268,0.22900763358778625
11.65,0.30376792744366554,0.0,0.0,10.191052322105435,9.600748657226562,0.4165910888671875,-3.392583752441406,28.56115202435085,101.30166991562548,58.97070270168218,0.0,0.0,-0.732824427480916,-1.1908396946564885,0.10687022900763359
11.69,0.30376792744366554,0.0,0.0,10.131409106189796,9.564835632324218,0.40462008056640625,-3.3159692993164063,28.56115202435085,101.30166991562548,58.97070270168218,0.0,0.0,-0.916030534351145,-1.282442748091603,0.21374045801526717
11.74,0.30376792744366554,0.0,0.0,10.143493295572473,9.567229833984374,0.373495458984375,-3.3494881225585935,28.56115202435085,101.30166991562548,58.97070270168218,0.0,0.0,-0.8396946564885496,-1.1450381679389312,0.10687022900763359
11.77,0.30376792744366554,0.0,0.0,10.149283185196065,9.576806640625,0.3711012573242187,-3.3399113159179685,28.56115202435085,101.30166991562548,58.97070270168218,0.0,0.0,-0.5343511450381679,-1.1450381679389312,0.24427480916030533
11.81,0.30376792744366554,0.0,0.0,10.118526472893553,9.5384994140625,0.38786066894531246,-3.3542765258789062,28.56115202435085,101.30166991562548,58.97070270168218,0.0,0.0,-0.7938931297709924,-1.1755725190839694,0.07633587786259542
11.86,0.30376792744366554,0.0,0.0,10.12657812882753,9.56962403564453,0.36391865234375,-3.2920272827148436,28.56115202435085,101.30166991562548,58.97070270168218,0.0,0.0,-0.7938931297709924,-1.1603053435114503,0.12213740458015267
11.9,0.24779351268828131,-1.3993603688845733,0.0,10.12657812882753,9.56962403564453,0.36391865234375,-3.2920272827148436,28.526855756816076,101.30234209517883,58.897808775998215,0.0,0.0,-0.7938931297709924,-1.1603053435114503,0.12213740458015267
11.91,0.24779351268828131,0.0,0.0,10.129048658147733,9.562441430664062,0.4213794921875,-3.31357509765625,28.526855756816076,101.30234209517883,58.897808775998215,0.0,0.0,-0.7786259541984732,-1.1755725190839694,0.1984732824427481
11.95,0.24779351268828131,0.0,0.0,10.12768612114687,9.576806640625,0.37828386230468747,-3.2728736694335936,28.526855756816076,101.30234209517883,58.897808775998215,0.0,0.0,-1.0229007633587786,-1.2061068702290076,0.183206106870229
11.99,0.24779351268828131,0.0,0.0,10.118314597592756,9.567229833984374,0.4285620971679687,-3.265691064453125,28.526855756816076,101.30234209517883,58.897808775998215,0.0,0.0,-0.9312977099236641,-1.2366412213740459,0.16793893129770993
12.04,0.24779351268828131,0.0,0.0,10.130556149056831,9.576806640625,0.39264907226562495,-3.2800562744140622,28.526855756816076,101.30234209517883,58.897808775998215,0.0,0.0,-1.0687022900763359,-1.2061068702290076,0.1984732824427481
12.08,0.24779351268828131,0.0,0.0,10.151418709418154,9.567229833984374,0.4333505004882812,-3.366247534179687,28.526855756816076,101.30234209517883,58.897808775998215,0.0,0.0,-0.9923664122137404,-1.251908396946565,0.0916030534351145
12.13,0.24779351268828131,0.0,0.0,10.121616289011799,9.574412438964844,0.39983167724609375,-3.258508459472656,28.526855756816076,101.30234209517883,58.897808775998215,0.0,0.0,-0.7175572519083969,-1.1755725190839694,0.15267175572519084
12.17,0.24779351268828131,0.0,0.0,10.121616289011799,9.574412438964844,0.39983167724609375,-3.258508459472656,28.526855756816076,101.30234209517883,58.897808775998215,0.0,0.0,-0.7175572519083969,-1.1755725190839694,0.15267175572519084
12.17,0.24779351268828131,0.0,0.0,10.099570719420484,9.53131680908203,0.41898529052734373,-3.31357509765625,28.526855756816076,101.30234209517883,58.897808775998215,0.0,0.0,-0.8091603053435115,-1.1450381679389312,0.13740458015267176
12.21,0.24779351268828131,0.0,0.0,10.127829882402173,9.56962403564453,0.4165910888671875,-3.289633081054687,28.526855756816076,101.30234209517883,58.897808775998215,0.0,0.0,-1.0229007633587786,-1.2213740458015268,0.183206106870229
12.25,0.24779351268828131,0.0,0.0,10.126221224773026,9.562441430664062,0.4285620971679687,-3.303998291015625,28.526855756816076,101.30234209517883,58.897808775998215,0.0,0.0,-0.7022900763358778,-1.1297709923664123,0.15267175572519084
12.29,0.24779351268828131,0.0,0.0,10.126221224773026,9.562441430664062,0.4285620971679687,-3.303998291015625,28.526855756816076,101.30234209517883,58.897808775998215,0.0,0.0,-0.7022900763358778,-1.1297709923664123,0.15267175572519084
12.29,0.24779351268828131,0.0,0.0,10.08692417868727,9.53131680908203,0.354341845703125,-3.2824504760742186,28.526855756816076,101.30234209517883,58.897808775998215,0.0,0.0,-1.099236641221374,-1.3435114503816794,0.13740458015267176
12.34,0.24779351268828131,0.0,0.0,10.153816297433421,9.588777648925781,0.41898529052734373,-3.31357509765625,28.526855756816076,101.30234209517883,58.897808775998215,0.0,0.0,-0.6870229007633588,-1.1603053435114503,0.1984732824427481
12.39,0.24779351268828131,0.0,0.0,10.16588653839075,9.591171850585937,0.4285620971679687,-3.342305517578125,28.526855756816076,101.30234209517883,58.897808775998215,0.0,0.0,-0.8854961832061069,-1.2061068702290076,0.24427480916030533
12.44,0.24779351268828131,0.0,0.0,10.129758576240226,9.567229833984374,0.40462008056640625,-3.303998291015625,28.526855756816076,101.30234209517883,58.897808775998215,0.0,0.0,-0.8396946564885496,-1.1908396946564885,0.10687022900763359
12.49,0.24779351268828131,0.0,0.0,10.157687998537403,9.567229833984374,0.411802685546875,-3.3877953491210935,28.526855756816076,101.30234209517883,58.897808775998215,0.0,0.0,-0.8396946564885496,-1.1908396946564885,0.15267175572519084
12.53,0.24779351268828131,0.0,0.0,10.132385321565247,9.564835632324218,0.40940848388671874,-3.318363500976562,28.526855756816076,101.30234209517883,58.897808775998215,0.0,0.0,-0.916030534351145,-1.1145038167938932,0.16793893129770993
12.58,0.24779351268828131,0.0,0.0,10.106699138596953,9.560047229003906,0.3854664672851562,-3.2561142578125,28.526855756816076,101.30234209517883,58.897808775998215,0.0,0.0,-0.8396946564885496,-1.2213740458015268,0.10687022900763359
12.63,0.24779351268828131,0.0,0.0,10.143793082629898,9.583989245605467,0.37828386230468747,-3.3016040893554686,28.526855756816076,101.30234209517883,58.897808775998215,0.0,0.0,-0.9770992366412213,-1.251908396946565,0.16793893129770993
12.64,0.2152168979843716,-3.2576614703910405,0.0,10.143793082629898,9.583989245605467,0.37828386230468747,-3.3016040893554686,28.688268578585667,101.30273329940088,58.908383701845494,0.0,0.0,-0.9770992366412213,-1.251908396946565,0.16793893129770993
12.67,0.2152168979843716,0.0,0.0,10.147351706067601,9.583989245605467,0.4285620971679687,-3.306392492675781,28.688268578585667,101.30273329940088,58.908383701845494,0.0,0.0,-0.9770992366412213,-1.282442748091603,0.2595419847328244
12.71,0.2152168979843716,0.0,0.0,10.158585230074385,9.576806640625,0.44532150878906246,-3.3590649291992185,28.688268578585667,101.30273329940088,58.908383701845494,0.0,0.0,-0.9007633587786259,-1.0534351145038168,0.24427480916030533
12.75,0.2152168979843716,0.0,0.0,10.13513072365128,9.579200842285156,0.411802685546875,-3.284844677734375,28.688268578585667,101.30273329940088,58.908383701845494,0.0,0.0,-0.9923664122137404,-1.2061068702290076,0.2595419847328244
12.8,0.2152168979843716,0.0,0.0,10.147742889225885,9.567229833984374,0.4213794921875,-3.356670727539062,28.688268578585667,101.30273329940088,58.908383701845494,0.0,0.0,-0.9923664122137404,-1.1908396946564885,0.16793893129770993
12.84,0.2152168979843716,0.0,0.0,10.09049660926427,9.514557397460937,0.3902548706054687,-3.337517114257812,28.688268578585667,101.30273329940088,58.908383701845494,0.0,0.0,-0.916030534351145,-1.2061068702290076,0.15267175572519084
12.88,0.2152168979843716,0.0,0.0,10.136807522140577,9.560047229003906,0.3758896606445312,-3.3494881225585935,28.688268578585667,101.30273329940088,58.908383701845494,0.0,0.0,-0.7786259541984732,-1.2213740458015268,0.1984732824427481
12.93,0.2152168979843716,0.0,0.0,10.15323396116456,9.574412438964844,0.40940848388671874,-3.3542765258789062,28.688268578585667,101.30273329940088,58.908383701845494,0.0,0.0,-0.7786259541984732,-1.1908396946564885,0.21374045801526717
12.98,0.2152168979843716,0.0,0.0,10.149898786331256,9.583989245605467,0.3950432739257812,-3.318363500976562,28.688268578585667,101.30273329940088,58.908383701845494,0.0,0.0,-1.1145038167938932,-1.2213740458015268,0.183206106870229
13.02,0.2152168979843716,0.0,0.0,10.101052816685868,9.536105212402344,0.4213794921875,-3.303998291015625,28.688268578585667,101.30273329940088,58.908383701845494,0.0,0.0,-1.0076335877862594,-1.2061068702290076,0.2900763358778626
13.06,0.2152168979843716,0.0,0.0,10.136400365545796,9.579200842285156,0.42377369384765623,-3.287238879394531,28.688268578585667,101.30273329940088,58.908383701845494,0.0,0.0,-1.1450381679389312,-1.2671755725190839,0.13740458015267176
13.1,0.2152168979843716,0.0,0.0,10.131183355369556,9.543287817382812,0.39264907226562495,-3.3782185424804685,28.688268578585667,101.30273329940088,58.908383701845494,0.0,0.0,-0.9923664122137404,-1.1450381679389312,0.183206106870229
13.15,0.2152168979843716,0.0,0.0,10.115832946917159,9.557653027343749,0.33518823242187495,-3.296815686035156,28.688268578585667,101.30273329940088,58.908383701845494,0.0,0.0,-0.8702290076335878,-1.1603053435114503,0.183206106870229
13.17,0.2152168979843716,0.0,0.0,10.115832946917159,9.557653027343749,0.33518823242187495,-3.296815686035156,28.688268578585667,101.30273329940088,58.908383701845494,0.0,0.0,-0.8702290076335878,-1.1603053435114503,0.183206106870229
13.2,0.2152168979843716,0.0,0.0,10.120001545875658,9.564835632324218,0.411802685546875,-3.2800562744140622,28.688268578585667,101.30273329940088,58.908383701845494,0.0,0.0,-0.9770992366412213,-1.1908396946564885,0.1984732824427481
13.24,0.2152168979843716,0.0,0.0,10.100090599093036,9.5384994140625,0.39983167724609375,-3.296815686035156,28.688268578585667,101.30273329940088,58.908383701845494,0.0,0.0,-0.9923664122137404,-1.2366412213740459,0.24427480916030533
13.29,0.2152168979843716,0.0,0.0,10.137573723886469,9.562441430664062,0.37828386230468747,-3.3446997192382812,28.688268578585667,101.30273329940088,58.908383701845494,0.0,0.0,-0.9618320610687023,-1.083969465648855,0.0916030534351145
13.34,0.2152168979843716,0.0,0.0,10.138224243085709,9.56962403564453,0.36152445068359373,-3.327940307617187,28.688268578585667,101.30273329940088,58.908383701845494,0.0,0.0,-0.9465648854961832,-1.1755725190839694,0.13740458015267176
13.36,0.17409377720873032,-2.0561560387821083,0.0,10.138224243085709,9.56962403564453,0.36152445068359373,-3.327940307617187,28.49381808016824,101.30322713817209,58.798046874634515,0.0,0.0,-0.9465648854961832,-1.1755725190839694,0.13740458015267176
13.36,0.17409377720873032,-2.0561560387821083,0.0,10.138224243085709,9.56962403564453,0.36152445068359373,-3.327940307617187,28.49381808016824,101.30322713817209,58.798046874634515,0.0,0.0,-0.9465648854961832,-1.1755725190839694,0.13740458015267176
13.39,0.17409377720873032,0.0,0.0,10.12688039776049,9.555258825683593,0.41898529052734373,-3.327940307617187,28.49381808016824,101.30322713817209,58.798046874634515,0.0,0.0,-0.7786259541984732,-1.1603053435114503,0.04580152671755725
13.44,0.17409377720873032,0.0,0.0,10.132792073784824,9.557653027343749,0.430956298828125,-3.337517114257812,28.49381808016824,101.30322713817209,58.798046874634515,0.0,0.0,-0.6412213740458015,-1.1297709923664123,0.21374045801526717
13.48,0.17409377720873032,0.0,0.0,10.148837839447282,9.567229833984374,0.40940848388671874,-3.361459130859375,28.49381808016824,101.30322713817209,58.798046874634515,0.0,0.0,-1.0381679389312977,-1.2061068702290076,0.1984732824427481
13.53,0.17409377720873032,0.0,0.0,10.162387991329272,9.598354455566406,0.36631285400390623,-3.318363500976562,28.49381808016824,101.30322713817209,58.798046874634515,0.0,0.0,-1.0687022900763359,-1.2061068702290076,0.0916030534351145
13.58,0.17409377720873032,0.0,0.0,10.121300553645105,9.548076220703125,0.3687070556640625,-3.337517114257812,28.49381808016824,101.30322713817209,58.798046874634515,0.0,0.0,-0.8702290076335878,-1.1297709923664123,0.15267175572519084
13.63,0.17409377720873032,0.0,0.0,10.100007454196348,9.545682019042967,0.44053310546874996,-3.2704794677734372,28.49381808016824,101.30322713817209,58.798046874634515,0.0,0.0,-0.9465648854961832,-1.1297709923664123,0.13740458015267176
13.66,0.17409377720873032,0.0,0.0,10.12265658859515,9.552864624023437,0.40940848388671874,-3.323151904296875,28.49381808016824,101.30322713817209,58.798046874634515,0.0,0.0,-0.8091603053435115,-1.1755725190839694,0.1984732824427481
13.71,0.17409377720873032,0.0,0.0,10.15716288382109,9.581595043945311,0.39743747558593745,-3.347093920898437,28.49381808016824,101.30322713817209,58.798046874634515,0.0,0.0,-1.083969465648855,-1.1755725190839694,0.13740458015267176
13.75,0.17409377720873032,0.0,0.0,10.099507151510885,9.526528405761718,0.39264907226562495,-3.3303345092773435,28.49381808016824,101.30322713817209,58.798046874634515,0.0,0.0,-0.6259541984732825,-1.083969465648855,0.24427480916030533
13.8,0.17409377720873032,0.0,0.0,10.11846444034368,9.564835632324218,0.39264907226562495,-3.277662072753906,28.49381808016824,101.30322713817209,58.798046874634515,0.0,0.0,-0.8091603053435115,-1.1450381679389312,0.07633587786259542
13.83,0.17409377720873032,0.0,0.0,10.101277538466924,9.536105212402344,0.38786066894531246,-3.308786694335937,28.49381808016824,101.30322713817209,58.798046874634515,0.0,0.0,-0.8854961832061069,-1.2061068702290076,0.16793893129770993
13.88,0.17409377720873032,0.0,0.0,10.122755686135328,9.555258825683593,0.41419688720703124,-3.3159692993164063,28.49381808016824,101.30322713817209,58.798046874634515,0.0,0.0,-0.9465648854961832,-1.2213740458015268,0.15267175572519084
13.93,0.17409377720873032,0.0,0.0,10.082719732109528,9.504980590820312,0.4213794921875,-3.337517114257812,28.49381808016824,101.30322713817209,58.798046874634515,0.0,0.0,-1.0534351145038168,-1.1603053435114503,0.16793893129770993
13.93,0.06926900121301927,0.0,0.0,10.082719732109528,9.504980590820312,0.4213794921875,-3.337517114257812,28.64421826734524,101.30448596532788,58.79340161296771,0.0,0.0,-1.0534351145038168,-1.1603053435114503,0.16793893129770993
13.98,0.06926900121301927,0.0,0.0,10.120456090121474,9.540893615722656,0.39983167724609375,-3.35188232421875,28.64421826734524,101.30448596532788,58.79340161296771,0.0,0.0,-0.8091603053435115,-1.2213740458015268,0.13740458015267176
14.01,0.06926900121301927,0.0,0.0,10.131216454488726,9.550470422363281,0.38307226562499996,-3.3590649291992185,28.64421826734524,101.30448596532788,58.79340161296771,0.0,0.0,-0.7480916030534351,-1.1908396946564885,0.15267175572519084
14.06,0.06926900121301927,0.0,0.0,10.09869038178936,9.543287817382812,0.38786066894531246,-3.2800562744140622,28.64421826734524,101.30448596532788,58.79340161296771,0.0,0.0,-0.9312977099236641,-1.2671755725190839,0.22900763358778625
14.11,0.06926900121301927,0.0,0.0,10.126895963800214,9.550470422363281,0.373495458984375,-3.347093920898437,28.64421826734524,101.30448596532788,58.79340161296771,0.0,0.0,-0.6870229007633588,-1.099236641221374,0.1984732824427481
14.14,0.06926900121301927,0.0,0.0,10.149181522700804,9.579200842285156,0.3711012573242187,-3.3327287109375,28.64421826734524,101.30448596532788,58.79340161296771,0.0,0.0,0.015267175572519083,-1.1297709923664123,0.16793893129770993
14.17,0.06926900121301927,0.0,0.0,10.149181522700804,9.579200842285156,0.3711012573242187,-3.3327287109375,28.64421826734524,101.30448596532788,58.79340161296771,0.0,0.0,0.015267175572519083,-1.1297709923664123,0.16793893129770993
14.18,0.06926900121301927,0.0,0.0,10.161708839800808,9.579200842285156,0.40940848388671874,-3.366247534179687,28.64421826734524,101.30448596532788,58.79340161296771,0.0,0.0,-0.6564885496183206,-1.1450381679389312,0.24427480916030533
14.23,0.06926900121301927,0.0,0.0,10.168362174204516,9.588777648925781,0.40940848388671874,-3.3590649291992185,28.64421826734524,101.30448596532788,58.79340161296771,0.0,0.0,-0.8244274809160306,-1.1145038167938932,0.1984732824427481
14.28,0.06926900121301927,0.0,0.0,10.098504768895513,9.550470422363281,0.38786066894531246,-3.258508459472656,28.64421826734524,101.30448596532788,58.79340161296771,0.0,0.0,-0.7022900763358778,-1.0534351145038168,0.13740458015267176
14.31,0.06926900121301927,0.0,0.0,10.123074773623697,9.540893615722656,0.3854664672851562,-3.361459130859375,28.64421826734524,101.30448596532788,58.79340161296771,0.0,0.0,-0.5190839694656488,-1.1603053435114503,0.16793893129770993
14.36,0.06926900121301927,0.0,0.0,10.134144591358341,9.574412438964844,0.44053310546874996,-3.2920272827148436,28.64421826734524,101.30448596532788,58.79340161296771,0.0,0.0,-1.1603053435114503,-1.282442748091603,0.15267175572519084
14.41,0.06926900121301927,0.0,0.0,10.147825643008467,9.581595043945311,0.39983167724609375,-3.318363500976562,28.64421826734524,101.30448596532788,58.79340161296771,0.0,0.0,-1.0687022900763359,-1.251908396946565,0.10687022900763359
14.43,0.06926900121301927,0.0,0.0,10.147825643008467,9.581595043945311,0.39983167724609375,-3.318363500976562,28.64421826734524,101.30448596532788,58.79340161296771,0.0,0.0,-1.0687022900763359,-1.251908396946565,0.10687022900763359
14.46,0.06926900121301927,0.0,0.0,10.154835234988434,9.586383447265625,0.38307226562499996,-3.327940307617187,28.64421826734524,101.30448596532788,58.79340161296771,0.0,0.0,-0.9923664122137404,-1.1603053435114503,0.16793893129770993
14.49,0.06926900121301927,0.0,0.0,10.150407052706301,9.572018237304688,0.3950432739257812,-3.3542765258789062,28.64421826734524,101.30448596532788,58.79340161296771,0.0,0.0,-0.6412213740458015,-1.1450381679389312,0.10687022900763359
14.54,0.06926900121301927,0.0,0.0,10.129166934125866,9.552864624023437,0.4333505004882812,-3.3399113159179685,28.64421826734524,101.30448596532788,58.79340161296771,0.0,0.0,-0.7633587786259542,-1.1603053435114503,0.16793893129770993
14.59,0.06926900121301927,0.0,0.0,10.128649961721688,9.560047229003906,0.40940848388671874,-3.3207577026367185,28.64421826734524,101.30448596532788,58.79340161296771,0.0,0.0,-0.8549618320610687,-1.1450381679389312,0.1984732824427481
14.64,0.06926900121301927,0.0,0.0,10.085638362265097,9.533711010742186,0.40462008056640625,-3.265691064453125,28.64421826734524,101.30448596532788,58.79340161296771,0.0,0.0,-0.549618320610687,-1.1603053435114503,0.183206106870229
14.65,0.06674234377591515,-0.2526657437104172,0.0,10.085638362265097,9.533711010742186,0.40462008056640625,-3.265691064453125,28.681661030535906,101.30451630778607,58.744813700136795,0.0,0.0,-0.549618320610687,-1.1603053435114503,0.183206106870229
14.67,0.06674234377591515,0.0,0.0,10.14321836525159,9.576806640625,0.43574470214843747,-3.31357509765625,28.681661030535906,101.30451630778607,58.744813700136795,0.0,0.0,-1.1450381679389312,-1.1908396946564885,0.1984732824427481
14.72,0.06674234377591515,0.0,0.0,10.112330687358385,9.528922607421874,0.41898529052734373,-3.3590649291992185,28.681661030535906,101.30451630778607,58.744813700136795,0.0,0.0,-0.9618320610687023,-1.2061068702290076,0.1984732824427481
14.77,0.06674234377591515,0.0,0.0,10.1014182707739,9.562441430664062,0.3687070556640625,-3.2345664428710936,28.681661030535906,101.30451630778607,58.744813700136795,0.0,0.0,-0.9312977099236641,-1.1908396946564885,0.13740458015267176
14.82,0.06674234377591515,0.0,0.0,10.110008592235172,9.564835632324218,0.373495458984375,-3.2537200561523436,28.681661030535906,101.30451630778607,58.744813700136795,0.0,0.0,-0.5343511450381679,-1.0687022900763359,0.183206106870229
14.85,0.06674234377591515,0.0,0.0,10.145350928517686,9.576806640625,0.411802685546875,-3.323151904296875,28.681661030535906,101.30451630778607,58.744813700136795,0.0,0.0,-0.7786259541984732,-1.2061068702290076,0.183206106870229
14.9,0.06674234377591515,0.0,0.0,10.129752917464504,9.552864624023437,0.4285620971679687,-3.342305517578125,28.681661030535906,101.30451630778607,58.744813700136795,0.0,0.0,-0.8091603053435115,-1.2366412213740459,0.16793893129770993
14.94,0.06674234377591515,0.0,0.0,10.123109598002582,9.564835632324218,0.411802685546875,-3.289633081054687,28.681661030535906,101.30451630778607,58.744813700136795,0.0,0.0,-0.8854961832061069,-1.1603053435114503,0.12213740458015267
14.97,0.06674234377591515,0.0,0.0,10.115032796419692,9.536105212402344,0.4165910888671875,-3.347093920898437,28.681661030535906,101.30451630778607,58.744813700136795,0.0,0.0,-0.6870229007633588,-1.251908396946565,0.21374045801526717
15.01,0.06674234377591515,0.0,0.0,10.146073265172049,9.581595043945311,0.3950432739257812,-3.31357509765625,28.681661030535906,101.30451630778607,58.744813700136795,0.0,0.0,-0.6870229007633588,-1.1755725190839694,0.22900763358778625
15.06,0.06674234377591515,0.0,0.0,10.142940884340018,9.562441430664062,0.4333505004882812,-3.3542765258789062,28.681661030535906,101.30451630778607,58.744813700136795,0.0,0.0,-1.0229007633587786,-1.2671755725190839,0.1984732824427481
15.1,0.06674234377591515,0.0,0.0,10.124235521702044,9.552864624023437,0.4285620971679687,-3.3255461059570313,28.681661030535906,101.30451630778607,58.744813700136795,0.0,0.0,-0.8091603053435115,-1.1908396946564885,0.22900763358778625
15.14,0.06674234377591515,0.0,0.0,10.141792450842038,9.583989245605467,0.4070142822265625,-3.2920272827148436,28.681661030535906,101.30451630778607,58.744813700136795,0.0,0.0,-0.8854961832061069,-1.1908396946564885,0.13740458015267176
15.17,0.06674234377591515,0.0,0.0,10.141792450842038,9.583989245605467,0.4070142822265625,-3.2920272827148436,28.681661030535906,101.30451630778607,58.744813700136795,0.0,0.0,-0.8854961832061069,-1.1908396946564885,0.13740458015267176
15.19,0.06674234377591515,0.0,0.0,10.122002237341952,9.572018237304688,0.46208092041015625,-3.258508459472656,28.681661030535906,101.30451630778607,58.744813700136795,0.0,0.0,-0.7480916030534351,-1.1297709923664123,0.13740458015267176
15.22,0.0380598490723183,-0.9560831567865254,0.0,10.122002237341952,9.572018237304688,0.46208092041015625,-3.258508459472656,28.596077594524104,101.30486075443989,58.65758444428431,0.0,0.0,-0.7480916030534351,-1.1297709923664123,0.13740458015267176
15.22,0.0380598490723183,-0.9560831567865254,0.0,10.116383438641652,9.562441430664062,0.4165910888671875,-3.27526787109375,28.596077594524104,101.30486075443989,58.65758444428431,0.0,0.0,-0.7175572519083969,-1.1908396946564885,0.13740458015267176
15.27,0.0380598490723183,0.0,0.0,10.098892735690299,9.533711010742186,0.42377369384765623,-3.303998291015625,28.596077594524104,101.30486075443989,58.65758444428431,0.0,0.0,-1.0687022900763359,-1.1908396946564885,0.12213740458015267
15.31,0.0380598490723183,0.0,0.0,10.200065075628263,9.627084875488281,0.4165910888671875,-3.3446997192382812,28.596077594524104,101.30486075443989,58.65758444428431,0.0,0.0,-0.9465648854961832,-1.2671755725190839,0.16793893129770993
15.36,0.0380598490723183,0.0,0.0,10.064216273416406,9.502586389160156,0.40940848388671874,-3.289633081054687,28.596077594524104,101.30486075443989,58.65758444428431,0.0,0.0,-1.0687022900763359,-1.2213740458015268,0.12213740458015267
15.4,0.0380598490723183,0.0,0.0,10.237784350630571,9.667786303710937,0.37828386230468747,-3.347093920898437,28.596077594524104,101.30486075443989,58.65758444428431,0.0,0.0,-1.1450381679389312,-1.3435114503816794,-0.07633587786259542
15.45,0.0380598490723183,0.0,0.0,10.110542392506051,9.536105212402344,0.38307226562499996,-3.337517114257812,28.596077594524104,101.30486075443989,58.65758444428431,0.0,0.0,-0.9007633587786259,-1.2366412213740459,0.015267175572519083
15.49,0.0380598490723183,0.0,0.0,10.169627949100775,9.603142858886718,0.4165910888671875,-3.3207577026367185,28.596077594524104,101.30486075443989,58.65758444428431,0.0,0.0,-0.8702290076335878,-1.099236641221374,0.015267175572519083
15.5,0.0380598490723183,0.0,0.0,10.169627949100775,9.603142858886718,0.4165910888671875,-3.3207577026367185,28.596077594524104,101.30486075443989,58.65758444428431,0.0,0.0,-0.8702290076335878,-1.099236641221374,0.015267175572519083
15.53,0.0380598490723183,0.0,0.0,10.118144640936153,9.552864624023437,0.41419688720703124,-3.308786694335937,28.596077594524104,101.30486075443989,58.65758444428431,0.0,0.0,-1.2061068702290076,-1.2061068702290076,0.12213740458015267
15.57,0.0380598490723183,0.0,0.0,10.175130026479824,9.603142858886718,0.43574470214843747,-3.3351229125976563,28.596077594524104,101.30486075443989,58.65758444428431,0.0,0.0,-0.9312977099236641,-1.2213740458015268,0.15267175572519084
15.61,0.0380598490723183,0.0,0.0,10.085378337471479,9.526528405761718,0.39264907226562495,-3.287238879394531,28.596077594524104,101.30486075443989,58.65758444428431,0.0,0.0,-0.6717557251908397,-1.0381679389312977,0.2900763358778626
15.66,0.0380598490723183,0.0,0.0,10.174698769749291,9.598354455566406,0.3806780639648437,-3.3542765258789062,28.596077594524104,101.30486075443989,58.65758444428431,0.0,0.0,-0.5648854961832062,-1.1603053435114503,0.0916030534351145
15.69,0.0380598490723183,0.0,0.0,10.1601913023493,9.588777648925781,0.40222587890625,-3.3351229125976563,28.596077594524104,101.30486075443989,58.65758444428431,0.0,0.0,-1.0076335877862594,-1.251908396946565,0.15267175572519084
15.74,0.0380598490723183,0.0,0.0,10.065096778740596,9.502586389160156,0.411802685546875,-3.2920272827148436,28.596077594524104,101.30486075443989,58.65758444428431,0.0,0.0,-0.916030534351145,-1.1908396946564885,0.21374045801526717
15.79,0.0380598490723183,0.0,0.0,10.121804309699156,9.555258825683593,0.3902548706054687,-3.3159692993164063,28.596077594524104,101.30486075443989,58.65758444428431,0.0,0.0,-0.9618320610687023,-1.2213740458015268,0.183206106870229
15.84,0.0380598490723183,0.0,0.0,10.155495090692469,9.591171850585937,0.42377369384765623,-3.3111808959960936,28.596077594524104,101.30486075443989,58.65758444428431,0.0,0.0,-0.9312977099236641,-1.2671755725190839,0.16793893129770993
15.89,0.0380598490723183,0.0,0.0,10.219570348605378,9.641450085449218,0.38786066894531246,-3.366247534179687,28.596077594524104,101.30486075443989,58.65758444428431,0.0,0.0,-0.8702290076335878,-1.1603053435114503,0.061068702290076333
15.93,0.0380598490723183,0.0,0.0,10.183194062242672,9.617508068847656,0.4165910888671875,-3.3207577026367185,28.596077594524104,101.30486075443989,58.65758444428431,0.0,0.0,-1.0076335877862594,-1.3282442748091603,0.13740458015267176
15.96,0.09970117357079311,2.0547108166157493,0.0,10.183194062242672,9.617508068847656,0.4165910888671875,-3.3207577026367185,28.696449353028402,101.30412050800746,58.61163264186113,0.0,0.0,-1.0076335877862594,-1.3282442748091603,0.13740458015267176
15.98,0.09970117357079311,0.0,0.0,10.102172403644161,9.540893615722656,0.4333505004882812,-3.2920272827148436,28.696449353028402,101.30412050800746,58.61163264186113,0.0,0.0,-1.0687022900763359,-1.2671755725190839,0.13740458015267176
16.01,0.09970117357079311,0.0,0.0,10.1865121458837,9.610325463867188,0.41419688720703124,-3.35188232421875,28.696449353028402,101.30412050800746,58.61163264186113,0.0,0.0,-0.5648854961832062,-1.099236641221374,0.15267175572519084
16.05,0.09970117357079311,0.0,0.0,10.176251321105383,9.612719665527344,0.3950432739257812,-3.3159692993164063,28.696449353028402,101.30412050800746,58.61163264186113,0.0,0.0,-0.8549618320610687,-1.251908396946565,0.0916030534351145
16.1,0.09970117357079311,0.0,0.0,10.140254126140277,9.56962403564453,0.4333505004882812,-3.3255461059570313,28.696449353028402,101.30412050800746,58.61163264186113,0.0,0.0,-0.5648854961832062,-1.1450381679389312,0.015267175572519083
16.15,0.09970117357079311,0.0,0.0,10.145946711664068,9.583989245605467,0.45010991210937495,-3.299209887695312,28.696449353028402,101.30412050800746,58.61163264186113,0.0,0.0,-0.7786259541984732,-1.1603053435114503,0.1984732824427481
16.17,0.09970117357079311,0.0,0.0,10.145946711664068,9.583989245605467,0.45010991210937495,-3.299209887695312,28.696449353028402,101.30412050800746,58.61163264186113,0.0,0.0,-0.7786259541984732,-1.1603053435114503,0.1984732824427481
16.2,0.09970117357079311,0.0,0.0,10.082894833947735,9.509768994140625,0.430956298828125,-3.323151904296875,28.696449353028402,101.30412050800746,58.61163264186113,0.0,0.0,-0.8854961832061069,-1.1908396946564885,0.12213740458015267
16.25,0.09970117357079311,0.0,0.0,10.174669474050372,9.60793126220703,0.3902548706054687,-3.3255461059570313,28.696449353028402,101.30412050800746,58.61163264186113,0.0,0.0,-0.7480916030534351,-1.1908396946564885,0.24427480916030533
16.28,0.09970117357079311,0.0,0.0,10.158222961219373,9.586383447265625,0.4285620971679687,-3.3327287109375,28.696449353028402,101.30412050800746,58.61163264186113,0.0,0.0,-0.7938931297709924,-1.1450381679389312,0.33587786259541985
16.32,0.09970117357079311,0.0,0.0,10.120029017353652,9.550470422363281,0.4381389038085937,-3.318363500976562,28.696449353028402,101.30412050800746,58.61163264186113,0.0,0.0,-0.7633587786259542,-1.1603053435114503,0.16793893129770993
16.37,0.09970117357079311,0.0,0.0,10.16877876147094,9.593566052246093,0.36391865234375,-3.35188232421875,28.696449353028402,101.30412050800746,58.61163264186113,0.0,0.0,-1.0229007633587786,-1.1908396946564885,0.1984732824427481
16.41,0.09970117357079311,0.0,0.0,10.181233264836926,9.591171850585937,0.4165910888671875,-3.39018955078125,28.696449353028402,101.30412050800746,58.61163264186113,0.0,0.0,-1.083969465648855,-1.2061068702290076,0.2748091603053435
16.46,0.09970117357079311,0.0,0.0,10.092993860602023,9.521740002441407,0.4213794921875,-3.3207577026367185,28.696449353028402,101.30412050800746,58.61163264186113,0.0,0.0,-1.1603053435114503,-1.1297709923664123,0.1984732824427481
16.51,0.09970117357079311,0.0,0.0,10.125939881545008,9.564835632324218,0.42377369384765623,-3.296815686035156,28.696449353028402,101.30412050800746,58.61163264186113,0.0,0.0,-0.7022900763358778,-1.1908396946564885,0.0916030534351145
16.55,0.09970117357079311,0.0,0.0,10.17522833130176,9.598354455566406,0.4333505004882812,-3.3494881225585935,28.696449353028402,101.30412050800746,58.61163264186113,0.0,0.0,-0.15267175572519084,-1.0381679389312977,0.183206106870229
16.57,0.09970117357079311,0.0,0.0,10.17522833130176,9.598354455566406,0.4333505004882812,-3.3494881225585935,28.696449353028402,101.30412050800746,58.61163264186113,0.0,0.0,-0.15267175572519084,-1.0381679389312977,0.183206106870229
16.58,0.09970117357079311,0.0,0.0,10.112460779207982,9.540893615722656,0.43574470214843747,-3.323151904296875,28.696449353028402,101.30412050800746,58.61163264186113,0.0,0.0,-0.8702290076335878,-1.2061068702290076,0.183206106870229
16.63,0.09970117357079311,0.0,0.0,10.138190318735392,9.572018237304688,0.40462008056640625,-3.3159692993164063,28.696449353028402,101.30412050800746,58.61163264186113,0.0,0.0,-0.7633587786259542,-1.2061068702290076,0.24427480916030533
16.67,0.09970117357079311,0.0,0.0,10.144281312520706,9.572018237304688,0.39983167724609375,-3.3351229125976563,28.696449353028402,101.30412050800746,58.61163264186113,0.0,0.0,-0.916030534351145,-1.1603053435114503,0.1984732824427481
16.68,0.3261818400088645,22.648066643811646,0.0,10.144281312520706,9.572018237304688,0.39983167724609375,-3.3351229125976563,28.655230843149912,101.30140075484685,58.57166140957007,0.0,0.0,-0.916030534351145,-1.1603053435114503,0.1984732824427481
16.7,0.3261818400088645,0.0,0.0,10.112344575239117,9.545682019042967,0.41898529052734373,-3.3111808959960936,28.655230843149912,101.30140075484685,58.57166140957007,0.0,0.0,-0.6259541984732825,-1.1450381679389312,0.13740458015267176
16.75,0.3261818400088645,0.0,0.0,10.14181251563395,9.581595043945311,0.4429273071289062,-3.294421484375,28.655230843149912,101.30140075484685,58.57166140957007,0.0,0.0,-0.8854961832061069,-1.083969465648855,0.16793893129770993
16.79,0.3261818400088645,0.0,0.0,10.157607300244296,9.574412438964844,0.39983167724609375,-3.3686417358398435,28.655230843149912,101.30140075484685,58.57166140957007,0.0,0.0,-0.8702290076335878,-1.2061068702290076,0.33587786259541985
16.82,0.3261818400088645,0.0,0.0,10.145051752519125,9.591171850585937,0.3758896606445312,-3.284844677734375,28.655230843149912,101.30140075484685,58.57166140957007,0.0,0.0,-1.0076335877862594,-1.2213740458015268,0.24427480916030533
16.87,0.3261818400088645,0.0,0.0,10.111843465756271,9.550470422363281,0.4477157104492187,-3.2920272827148436,28.655230843149912,101.30140075484685,58.57166140957007,0.0,0.0,-0.8549618320610687,-1.1297709923664123,0.0916030534351145
16.89,0.3261818400088645,0.0,0.0,10.116175484918024,9.560047229003906,0.3902548706054687,-3.284844677734375,28.655230843149912,101.30140075484685,58.57166140957007,0.0,0.0,-0.732824427480916,-1.251908396946565,0.183206106870229
16.93,0.3261818400088645,0.0,0.0,10.114250718479296,9.552864624023437,0.3950432739257812,-3.299209887695312,28.655230843149912,101.30140075484685,58.57166140957007,0.0,0.0,-0.7175572519083969,-1.1145038167938932,0.24427480916030533
16.98,0.3261818400088645,0.0,0.0,10.071655144902188,9.524134204101562,0.4165910888671875,-3.248931652832031,28.655230843149912,101.30140075484685,58.57166140957007,0.0,0.0,-1.1908396946564885,-1.251908396946565,0.183206106870229
17.01,0.3261818400088645,0.0,0.0,10.146944972569042,9.56962403564453,0.40462008056640625,-3.3494881225585935,28.655230843149912,101.30140075484685,58.57166140957007,0.0,0.0,-0.5190839694656488,-1.0687022900763359,0.22900763358778625
17.05,0.3261818400088645,0.0,0.0,10.13127642868558,9.543287817382812,0.3950432739257812,-3.3782185424804685,28.655230843149912,101.30140075484685,58.57166140957007,0.0,0.0,-0.8854961832061069,-1.1603053435114503,0.183206106870229
17.09,0.3261818400088645,0.0,0.0,10.090076221873712,9.528922607421874,0.3950432739257812,-3.294421484375,28.655230843149912,101.30140075484685,58.57166140957007,0.0,0.0,-0.5801526717557252,-1.1297709923664123,0.24427480916030533
17.11,0.3261818400088645,0.0,0.0,10.139964127346513,9.564835632324218,0.40222587890625,-3.342305517578125,28.655230843149912,101.30140075484685,58.57166140957007,0.0,0.0,-0.7480916030534351,-1.1450381679389312,0.1984732824427481
17.12,0.3261818400088645,0.0,0.0,10.108078114777612,9.543287817382812,0.44532150878906246,-3.3016040893554686,28.655230843149912,101.30140075484685,58.57166140957007,0.0,0.0,-1.0076335877862594,-1.1755725190839694,0.183206106870229
17.13,0.3261818400088645,0.0,0.0,10.068233166654624,9.502586389160156,0.411802685546875,-3.3016040893554686,28.655230843149912,101.30140075484685,58.57166140957007,0.0,0.0,-0.8549618320610687,-1.1450381679389312,0.15267175572519084
17.13,0.3261818400088645,0.0,0.0,10.068233166654624,9.502586389160156,0.411802685546875,-3.3016040893554686,28.655230843149912,101.30140075484685,58.57166140957007,0.0,0.0,-0.8549618320610687,-1.1450381679389312,0.15267175572519084
17.14,0.23658880474135557,-8.959303526749494,0.0,10.068233166654624,9.502586389160156,0.411802685546875,-3.3016040893554686,28.69582006266046,101.30247664950869,58.530349611984924,0.0,0.0,-0.8549618320610687,-1.1450381679389312,0.15267175572519084
17.15,0.23658880474135557,0.0,0.0,10.098504768895513,9.545682019042967,0.40462008056640625,-3.2704794677734372,28.69582006266046,101.30247664950869,58.530349611984924,0.0,0.0,-0.7480916030534351,-1.1145038167938932,0.183206106870229
17.16,0.23658880474135557,0.0,0.0,10.13627567056737,9.576806640625,0.39983167724609375,-3.296815686035156,28.69582006266046,101.30247664950869,58.530349611984924,0.0,0.0,-1.0229007633587786,-1.2671755725190839,0.12213740458015267
17.16,0.23658880474135557,0.0,0.0,10.13627567056737,9.576806640625,0.39983167724609375,-3.296815686035156,28.69582006266046,101.30247664950869,58.530349611984924,0.0,0.0,-1.0229007633587786,-1.2671755725190839,0.12213740458015267
17.17,0.23658880474135557,0.0,0.0,10.179650221077551,9.600748657226562,0.4285620971679687,-3.356670727539062,28.69582006266046,101.30247664950869,58.530349611984924,0.0,0.0,-0.7022900763358778,-1.1755725190839694,0.12213740458015267
17.17,0.23658880474135557,0.0,0.0,10.179650221077551,9.600748657226562,0.4285620971679687,-3.356670727539062,28.69582006266046,101.30247664950869,58.530349611984924,0.0,0.0,-0.7022900763358778,-1.1755725190839694,0.12213740458015267
17.17,0.23658880474135557,0.0,0.0,10.179650221077551,9.600748657226562,0.4285620971679687,-3.356670727539062,28.69582006266046,101.30247664950869,58.530349611984924,0.0,0.0,-0.7022900763358778,-1.1755725190839694,0.12213740458015267
17.17,0.23658880474135557,0.0,0.0,10.179650221077551,9.600748657226562,0.4285620971679687,-3.356670727539062,28.69582006266046,101.30247664950869,58.530349611984924,0.0,0.0,-0.7022900763358778,-1.1755725190839694,0.12213740458015267
17.18,0.23658880474135557,0.0,0.0,10.102038207292518,9.5384994140625,0.40940848388671874,-3.3016040893554686,28.69582006266046,101.30247664950869,58.530349611984924,0.0,0.0,-1.099236641221374,-1.2213740458015268,0.15267175572519084
17.18,0.23658880474135557,0.0,0.0,10.102038207292518,9.5384994140625,0.40940848388671874,-3.3016040893554686,28.69582006266046,101.30247664950869,58.530349611984924,0.0,0.0,-1.099236641221374,-1.2213740458015268,0.15267175572519084
17.19,0.23658880474135557,0.0,0.0,10.102623778290399,9.536105212402344,0.40222587890625,-3.3111808959960936,28.69582006266046,101.30247664950869,58.530349611984924,0.0,0.0,-0.5038167938931297,-1.0076335877862594,0.16793893129770993
17.19,0.23658880474135557,0.0,0.0,10.102623778290399,9.536105212402344,0.40222587890625,-3.3111808959960936,28.69582006266046,101.30247664950869,58.530349611984924,0.0,0.0,-0.5038167938931297,-1.0076335877862594,0.16793893129770993
17.19,0.23658880474135557,0.0,0.0,10.102623778290399,9.536105212402344,0.40222587890625,-3.3111808959960936,28.69582006266046,101.30247664950869,58.530349611984924,0.0,0.0,-0.5038167938931297,-1.0076335877862594,0.16793893129770993
17.21,0.23658880474135557,0.0,0.0,10.214272074831053,9.6151138671875,0.41898529052734373,-3.421314172363281,28.69582006266046,101.30247664950869,58.530349611984924,0.0,0.0,-0.6106870229007634,-1.099236641221374,0.1984732824427481
17.21,0.23658880474135557,0.0,0.0,10.214272074831053,9.6151138671875,0.41898529052734373,-3.421314172363281,28.69582006266046,101.30247664950869,58.530349611984924,0.0,0.0,-0.6106870229007634,-1.099236641221374,0.1984732824427481
17.22,0.23658880474135557,0.0,0.0,10.109562933884447,9.552864624023437,0.41419688720703124,-3.2824504760742186,28.69582006266046,101.30247664950869,58.530349611984924,0.0,0.0,-0.6259541984732825,-1.0687022900763359,0.16793893129770993
17.23,0.23658880474135557,0.0,0.0,10.136302815183086,9.576806640625,0.4381389038085937,-3.2920272827148436,28.69582006266046,101.30247664950869,58.530349611984924,0.0,0.0,-0.6564885496183206,-1.1450381679389312,0.22900763358778625
17.23,0.23658880474135557,0.0,0.0,10.136302815183086,9.576806640625,0.4381389038085937,-3.2920272827148436,28.69582006266046,101.30247664950869,58.530349611984924,0.0,0.0,-0.6564885496183206,-1.1450381679389312,0.22900763358778625
17.23,0.23658880474135557,0.0,0.0,10.136302815183086,9.576806640625,0.4381389038085937,-3.2920272827148436,28.69582006266046,101.30247664950869,58.530349611984924,0.0,0.0,-0.6564885496183206,-1.1450381679389312,0.22900763358778625
17.24,0.23658880474135557,0.0,0.0,10.13189849859025,9.557653027343749,0.40940848388671874,-3.337517114257812,28.69582006266046,101.30247664950869,58.530349611984924,0.0,0.0,-0.8244274809160306,-1.1145038167938932,0.22900763358778625
17.25,0.21153499652736607,-2.5053808213985587,0.0,10.13189849859025,9.557653027343749,0.40940848388671874,-3.337517114257812,28.659321228789302,101.30277751448942,58.50462658284255,0.0,0.0,-0.8244274809160306,-1.1145038167938932,0.22900763358778625
17.25,0.21153499652736607,-2.5053808213985587,0.0,10.13189849859025,9.557653027343749,0.40940848388671874,-3.337517114257812,28.659321228789302,101.30277751448942,58.50462658284255,0.0,0.0,-0.8244274809160306,-1.1145038167938932,0.22900763358778625
17.25,0.21153499652736607,-2.5053808213985587,0.0,10.144462980029001,9.552864624023437,0.4381389038085937,-3.385401147460937,28.659321228789302,101.30277751448942,58.50462658284255,0.0,0.0,-1.0381679389312977,-1.2061068702290076,0.12213740458015267
17.25,0.21153499652736607,-2.5053808213985587,0.0,10.144462980029001,9.552864624023437,0.4381389038085937,-3.385401147460937,28.659321228789302,101.30277751448942,58.50462658284255,0.0,0.0,-1.0381679389312977,-1.2061068702290076,0.12213740458015267
17.26,0.21153499652736607,0.0,0.0,10.144462980029001,9.552864624023437,0.4381389038085937,-3.385401147460937,28.659321228789302,101.30277751448942,58.50462658284255,0.0,0.0,-1.0381679389312977,-1.2061068702290076,0.12213740458015267
17.27,0.21153499652736607,0.0,0.0,10.166173260398958,9.593566052246093,0.41898529052734373,-3.337517114257812,28.659321228789302,101.30277751448942,58.50462658284255,0.0,0.0,-0.6870229007633588,-1.1297709923664123,0.21374045801526717
17.27,0.21153499652736607,0.0,0.0,10.166173260398958,9.593566052246093,0.41898529052734373,-3.337517114257812,28.659321228789302,101.30277751448942,58.50462658284255,0.0,0.0,-0.6870229007633588,-1.1297709923664123,0.21374045801526717
17.28,0.21153499652736607,0.0,0.0,10.115627815216605,9.552864624023437,0.3902548706054687,-3.303998291015625,28.659321228789302,101.30277751448942,58.50462658284255,0.0,0.0,-0.7786259541984732,-1.1450381679389312,0.21374045801526717
17.29,0.21153499652736607,0.0,0.0,10.140189117385304,9.579200842285156,0.4213794921875,-3.299209887695312,28.659321228789302,101.30277751448942,58.50462658284255,0.0,0.0,-0.6564885496183206,-1.1450381679389312,0.21374045801526717
17.29,0.21153499652736607,0.0,0.0,10.140189117385304,9.579200842285156,0.4213794921875,-3.299209887695312,28.659321228789302,101.30277751448942,58.50462658284255,0.0,0.0,-0.6564885496183206,-1.1450381679389312,0.21374045801526717
17.29,0.21153499652736607,0.0,0.0,10.140189117385304,9.579200842285156,0.4213794921875,-3.299209887695312,28.659321228789302,101.30277751448942,58.50462658284255,0.0,0.0,-0.6564885496183206,-1.1450381679389312,0.21374045801526717
17.3,0.21153499652736607,0.0,0.0,10.128008732138957,9.550470422363281,0.44053310546874996,-3.342305517578125,28.659321228789302,101.30277751448942,58.50462658284255,0.0,0.0,-0.8702290076335878,-1.1603053435114503,0.183206106870229
17.31,0.21153499652736607,0.0,0.0,10.15557495911131,9.579200842285156,0.373495458984375,-3.35188232421875,28.659321228789302,101.30277751448942,58.50462658284255,0.0,0.0,-0.7633587786259542,-1.1603053435114503,0.10687022900763359
17.33,0.21153499652736607,0.0,0.0,10.111002747801196,9.533711010742186,0.430956298828125,-3.3399113159179685,28.659321228789302,101.30277751448942,58.50462658284255,0.0,0.0,-0.8091603053435115,-1.1908396946564885,0.07633587786259542
17.34,0.21153499652736607,0.0,0.0,10.116499596217794,9.550470422363281,0.3902548706054687,-3.31357509765625,28.659321228789302,101.30277751448942,58.50462658284255,0.0,0.0,-1.1145038167938932,-1.1755725190839694,0.12213740458015267
17.34,0.21153499652736607,0.0,0.0,10.116499596217794,9.550470422363281,0.3902548706054687,-3.31357509765625,28.659321228789302,101.30277751448942,58.50462658284255,0.0,0.0,-1.1145038167938932,-1.1755725190839694,0.12213740458015267
17.35,0.21153499652736607,0.0,0.0,10.12845499373866,9.555258825683593,0.41898529052734373,-3.3327287109375,28.659321228789302,101.30277751448942,58.50462658284255,0.0,0.0,-0.8854961832061069,-1.1145038167938932,0.15267175572519084
17.36,0.14564192541337895,-6.589307111400023,0.0,10.12845499373866,9.555258825683593,0.41898529052734373,-3.3327287109375,28.619675960361747,101.30356881152224,58.505492496535446,0.0,0.0,-0.8854961832061069,-1.1145038167938932,0.15267175572519084
17.36,0.14564192541337895,-6.589307111400023,0.0,10.130912900395382,9.557653027343749,0.42377369384765623,-3.3327287109375,28.619675960361747,101.30356881152224,58.505492496535446,0.0,0.0,-0.9007633587786259,-1.2213740458015268,0.0916030534351145
17.37,0.14564192541337895,0.0,0.0,10.130912900395382,9.557653027343749,0.42377369384765623,-3.3327287109375,28.619675960361747,101.30356881152224,58.505492496535446,0.0,0.0,-0.9007633587786259,-1.2213740458015268,0.0916030534351145
17.37,0.14564192541337895,0.0,0.0,10.148328364796319,9.581595043945311,0.39264907226562495,-3.3207577026367185,28.619675960361747,101.30356881152224,58.505492496535446,0.0,0.0,-0.6412213740458015,-1.2061068702290076,0.183206106870229
17.39,0.14564192541337895,0.0,0.0,10.121416937962294,9.560047229003906,0.42377369384765623,-3.296815686035156,28.619675960361747,101.30356881152224,58.505492496535446,0.0,0.0,-0.8854961832061069,-1.2366412213740459,0.13740458015267176
17.39,0.14564192541337895,0.0,0.0,10.121416937962294,9.560047229003906,0.42377369384765623,-3.296815686035156,28.619675960361747,101.30356881152224,58.505492496535446,0.0,0.0,-0.8854961832061069,-1.2366412213740459,0.13740458015267176
17.39,0.14564192541337895,0.0,0.0,10.121416937962294,9.560047229003906,0.42377369384765623,-3.296815686035156,28.619675960361747,101.30356881152224,58.505492496535446,0.0,0.0,-0.8854961832061069,-1.2366412213740459,0.13740458015267176
17.4,0.14564192541337895,0.0,0.0,10.155361598964708,9.588777648925781,0.45489831542968745,-3.31357509765625,28.619675960361747,101.30356881152224,58.505492496535446,0.0,0.0,-0.3511450381679389,-1.099236641221374,0.21374045801526717
17.41,0.14564192541337895,0.0,0.0,10.145546419305102,9.576806640625,0.4165910888671875,-3.323151904296875,28.619675960361747,101.30356881152224,58.505492496535446,0.0,0.0,-0.8244274809160306,-1.1908396946564885,0.22900763358778625
17.42,0.14564192541337895,0.0,0.0,10.111020889452512,9.552864624023437,0.411802685546875,-3.287238879394531,28.619675960361747,101.30356881152224,58.505492496535446,0.0,0.0,-0.8549618320610687,-1.1755725190839694,0.21374045801526717
17.42,0.14564192541337895,0.0,0.0,10.111020889452512,9.552864624023437,0.411802685546875,-3.287238879394531,28.619675960361747,101.30356881152224,58.505492496535446,0.0,0.0,-0.8549618320610687,-1.1755725190839694,0.21374045801526717
17.43,0.14564192541337895,0.0,0.0,10.076541466204281,9.524134204101562,0.44053310546874996,-3.2609026611328122,28.619675960361747,101.30356881152224,58.505492496535446,0.0,0.0,-1.0229007633587786,-1.1908396946564885,0.22900763358778625
17.45,0.14564192541337895,0.0,0.0,10.152276971534858,9.591171850585937,0.4213794921875,-3.3016040893554686,28.619675960361747,101.30356881152224,58.505492496535446,0.0,0.0,-0.9312977099236641,-1.2061068702290076,0.2595419847328244
17.46,0.14564192541337895,0.0,0.0,10.134345954529541,9.564835632324218,0.41898529052734373,-3.323151904296875,28.619675960361747,101.30356881152224,58.505492496535446,0.0,0.0,-1.0381679389312977,-1.1755725190839694,0.13740458015267176
17.47,0.14564192541337895,0.0,0.0,10.134345954529541,9.564835632324218,0.41898529052734373,-3.323151904296875,28.619675960361747,101.30356881152224,58.505492496535446,0.0,0.0,-1.0381679389312977,-1.1755725190839694,0.13740458015267176
17.47,0.14564192541337895,0.0,0.0,10.14295868629644,9.583989245605467,0.4165910888671875,-3.294421484375,28.619675960361747,101.30356881152224,58.505492496535446,0.0,0.0,-1.1145038167938932,-1.1755725190839694,0.030534351145038167
17.51,0.14564192541337895,0.0,0.0,10.135622764106103,9.564835632324218,0.411802685546875,-3.327940307617187,28.619675960361747,101.30356881152224,58.505492496535446,0.0,0.0,-0.916030534351145,-1.1755725190839694,0.13740458015267176
17.54,0.14564192541337895,0.0,0.0,10.13780555211712,9.560047229003906,0.4213794921875,-3.347093920898437,28.619675960361747,101.30356881152224,58.505492496535446,0.0,0.0,-0.8091603053435115,-1.1297709923664123,0.12213740458015267
17.58,0.14564192541337895,0.0,0.0,10.13958649465305,9.581595043945311,0.44532150878906246,-3.287238879394531,28.619675960361747,101.30356881152224,58.505492496535446,0.0,0.0,-0.8396946564885496,-1.1755725190839694,0.13740458015267176
17.63,0.14564192541337895,0.0,0.0,10.131452954449916,9.574412438964844,0.4836287353515625,-3.277662072753906,28.619675960361747,101.30356881152224,58.505492496535446,0.0,0.0,-0.6717557251908397,-1.1450381679389312,0.183206106870229
17.64,0.14564192541337895,0.0,0.0,10.131452954449916,9.574412438964844,0.4836287353515625,-3.277662072753906,28.619675960361747,101.30356881152224,58.505492496535446,0.0,0.0,-0.6717557251908397,-1.1450381679389312,0.183206106870229
17.66,0.14564192541337895,0.0,0.0,10.144283290256041,9.567229833984374,0.41419688720703124,-3.347093920898437,28.619675960361747,101.30356881152224,58.505492496535446,0.0,0.0,-0.9465648854961832,-1.1755725190839694,0.21374045801526717
17.7,0.14564192541337895,0.0,0.0,10.146040497004465,9.572018237304688,0.42377369384765623,-3.337517114257812,28.619675960361747,101.30356881152224,58.505492496535446,0.0,0.0,-0.8702290076335878,-1.1603053435114503,0.15267175572519084
17.72,0.14564192541337895,0.0,0.0,10.131398639157712,9.550470422363281,0.38786066894531246,-3.3590649291992185,28.619675960361747,101.30356881152224,58.505492496535446,0.0,0.0,-0.7786259541984732,-1.1908396946564885,0.22900763358778625
17.77,0.14564192541337895,0.0,0.0,10.074416812226023,9.497797985839844,0.36152445068359373,-3.3399113159179685,28.619675960361747,101.30356881152224,58.505492496535446,0.0,0.0,-0.916030534351145,-1.1297709923664123,0.2900763358778626
17.82,0.14564192541337895,0.0,0.0,10.110777675232567,9.545682019042967,0.41898529052734373,-3.306392492675781,28.619675960361747,101.30356881152224,58.505492496535446,0.0,0.0,-1.1908396946564885,-1.2366412213740459,0.22900763358778625
17.86,0.14564192541337895,0.0,0.0,10.18030368227655,9.627084875488281,0.40940848388671874,-3.284844677734375,28.619675960361747,101.30356881152224,58.505492496535446,0.0,0.0,-0.8702290076335878,-1.1297709923664123,0.13740458015267176
