# targetAltitude=3000.0
# t0=2026-07-23T12:54:06.420000+00:00
time,altitude,velocity,horizontalVelocity,acceleration,accelerationX,accelerationY,accelerationZ,temperature,pressure,humidity,gpsLat,gpsLon,pitch,roll,yaw
0.0,0.0,0.0,0.0,10.095860124090274,0.7852981445312499,0.031124621582031248,10.065223779296874,20.0,101.3,50.0,0.0,0.0,-0.6412213740458015,-1.3282442748091603,0.366412213740458
0.0,0.0,0.0,0.0,10.095860124090274,0.7852981445312499,0.031124621582031248,10.065223779296874,20.0,101.3,50.0,0.0,0.0,-0.6412213740458015,-1.3282442748091603,0.366412213740458
0.01,0.0,0.0,0.0,10.095860124090274,0.7852981445312499,0.031124621582031248,10.065223779296874,20.0,101.3,50.0,0.0,0.0,-0.6412213740458015,-1.3282442748091603,0.366412213740458
0.01,0.0,0.0,0.0,9.991501805400079,0.82360537109375,0.016759411621093748,9.957484704589843,20.0,101.3,50.0,0.0,0.0,2.8244274809160306,-0.6870229007633588,0.549618320610687
0.04,0.0,0.0,0.0,10.013694276969964,0.8307879760742187,0.0526724365234375,9.97903251953125,20.0,101.3,50.0,0.0,0.0,-0.13740458015267176,-1.2671755725190839,0.4122137404580153
0.04,0.0,0.0,0.0,10.013694276969964,0.8307879760742187,0.0526724365234375,9.97903251953125,20.0,101.3,50.0,0.0,0.0,-0.13740458015267176,-1.2671755725190839,0.4122137404580153
0.04,0.0,0.0,0.0,10.013694276969964,0.8307879760742187,0.0526724365234375,9.97903251953125,20.0,101.3,50.0,0.0,0.0,-0.13740458015267176,-1.2671755725190839,0.4122137404580153
0.05,0.0,0.0,0.0,10.129903722757085,0.8786720092773437,0.05746083984375,10.091559997558592,20.0,101.3,50.0,0.0,0.0,2.549618320610687,-0.6564885496183206,0.5343511450381679
0.05,0.0,0.0,0.0,10.129903722757085,0.8786720092773437,0.05746083984375,10.091559997558592,20.0,101.3,50.0,0.0,0.0,2.549618320610687,-0.6564885496183206,0.5343511450381679
0.08,0.0,0.0,0.0,10.030711227435663,0.8355763793945312,0.033518823242187495,9.995791931152343,20.0,101.3,50.0,0.0,0.0,-0.0916030534351145,-1.2671755725190839,0.3816793893129771
0.09,0.0,0.0,0.0,10.030711227435663,0.8355763793945312,0.033518823242187495,9.995791931152343,20.0,101.3,50.0,0.0,0.0,-0.0916030534351145,-1.2671755725190839,0.3816793893129771
0.09,0.0,0.0,0.0,10.078198436555747,0.833182177734375,0.02154781494140625,10.043675964355469,20.0,101.3,50.0,0.0,0.0,0.5190839694656488,-1.099236641221374,0.48854961832061067
0.1,0.0,0.0,0.0,10.078198436555747,0.833182177734375,0.02154781494140625,10.043675964355469,20.0,101.3,50.0,0.0,0.0,0.5190839694656488,-1.099236641221374,0.48854961832061067
0.1,0.0,0.0,0.0,9.925361871319149,0.8307879760742187,0.040701428222656245,9.890447058105469,20.0,101.3,50.0,0.0,0.0,2.2595419847328246,-0.8244274809160306,0.4580152671755725
0.1,0.0,0.0,0.0,9.925361871319149,0.8307879760742187,0.040701428222656245,9.890447058105469,20.0,101.3,50.0,0.0,0.0,2.2595419847328246,-0.8244274809160306,0.4580152671755725
0.1,0.0,0.0,0.0,9.925361871319149,0.8307879760742187,0.040701428222656245,9.890447058105469,20.0,101.3,50.0,0.0,0.0,2.2595419847328246,-0.8244274809160306,0.4580152671755725
0.11,0.0,0.0,0.0,10.035331316130563,0.8882488159179687,0.055066638183593745,9.995791931152343,20.0,101.3,50.0,0.0,0.0,4.931297709923665,-0.32061068702290074,0.4580152671755725
0.11,0.0,0.0,0.0,10.035331316130563,0.8882488159179687,0.055066638183593745,9.995791931152343,20.0,101.3,50.0,0.0,0.0,4.931297709923665,-0.32061068702290074,0.4580152671755725
0.14,0.0,0.0,0.0,10.051771609536459,0.8595183959960937,0.0143652099609375,10.014945544433592,20.0,101.3,50.0,0.0,0.0,0.6870229007633588,-1.1297709923664123,0.5801526717557252
0.14,0.0,0.0,0.0,10.051771609536459,0.8595183959960937,0.0143652099609375,10.014945544433592,20.0,101.3,50.0,0.0,0.0,0.6870229007633588,-1.1297709923664123,0.5801526717557252
0.15,0.0,0.0,0.0,10.003657874563304,0.8188169677734375,0.11252747802734374,9.969455712890625,20.0,101.3,50.0,0.0,0.0,1.083969465648855,-1.0076335877862594,0.3969465648854962
0.16,0.0,0.0,0.0,9.931594358860673,0.8188169677734375,0.055066638183593745,9.897629663085937,20.0,101.3,50.0,0.0,0.0,2.351145038167939,-0.7938931297709924,0.7175572519083969
0.2,0.0,0.0,0.0,9.991901958512722,0.8283937744140625,0.01915361328125,9.957484704589843,20.0,101.3,50.0,0.0,0.0,-0.48854961832061067,-1.3282442748091603,0.5190839694656488
0.2,0.0,0.0,0.0,9.991901958512722,0.8283937744140625,0.01915361328125,9.957484704589843,20.0,101.3,50.0,0.0,0.0,-0.48854961832061067,-1.3282442748091603,0.5190839694656488
0.21,0.0,0.0,0.0,9.963627773751627,0.7733271362304687,0.023942016601562498,9.93354268798828,20.0,101.3,50.0,0.0,0.0,0.3969465648854962,-1.1755725190839694,0.4732824427480916
0.21,0.0,0.0,0.0,9.963627773751627,0.7733271362304687,0.023942016601562498,9.93354268798828,20.0,101.3,50.0,0.0,0.0,0.3969465648854962,-1.1755725190839694,0.4732824427480916
0.25,0.0,0.0,0.0,10.20266950634911,0.8667010009765624,0.0143652099609375,10.165780249023436,20.0,101.3,50.0,0.0,0.0,-0.15267175572519084,-1.282442748091603,0.4122137404580153
0.3,0.0,0.0,0.0,10.175332831947841,0.9074024291992187,0.0526724365234375,10.134655627441406,20.0,101.3,50.0,0.0,0.0,-0.5343511450381679,-1.3129770992366412,0.5190839694656488
0.3,0.0,0.0,0.0,10.051776741945266,0.7709329345703124,-0.028730419921875,10.022128149414062,20.0,101.3,50.0,0.0,0.0,-0.549618320610687,-1.297709923664122,0.48854961832061067
0.31,0.0,0.0,0.0,10.051776741945266,0.7709329345703124,-0.028730419921875,10.022128149414062,20.0,101.3,50.0,0.0,0.0,-0.549618320610687,-1.297709923664122,0.48854961832061067
0.31,0.0,0.0,0.0,10.051776741945266,0.7709329345703124,-0.028730419921875,10.022128149414062,20.0,101.3,50.0,0.0,0.0,-0.549618320610687,-1.297709923664122,0.48854961832061067
0.32,0.0,0.0,0.0,10.060099487009394,0.8164227661132812,0.0,10.026916552734374,20.0,101.3,50.0,0.0,0.0,1.5572519083969465,-0.7480916030534351,0.6106870229007634
0.32,0.0,0.0,0.0,10.060099487009394,0.8164227661132812,0.0,10.026916552734374,20.0,101.3,50.0,0.0,0.0,1.5572519083969465,-0.7480916030534351,0.6106870229007634
0.32,0.0,0.0,0.0,10.060099487009394,0.8164227661132812,0.0,10.026916552734374,20.0,101.3,50.0,0.0,0.0,1.5572519083969465,-0.7480916030534351,0.6106870229007634
0.32,0.0,0.0,0.0,10.060099487009394,0.8164227661132812,0.0,10.026916552734374,20.0,101.3,50.0,0.0,0.0,1.5572519083969465,-0.7480916030534351,0.6106870229007634
0.33,0.0,0.0,0.0,9.845631737167912,0.8667010009765624,0.12210428466796874,9.80665,20.0,101.3,50.0,0.0,0.0,1.618320610687023,-0.8396946564885496,0.6870229007633588
0.33,0.0,0.0,0.0,9.845631737167912,0.8667010009765624,0.12210428466796874,9.80665,20.0,101.3,50.0,0.0,0.0,1.618320610687023,-0.8396946564885496,0.6870229007633588
0.34,0.0,0.0,0.0,9.845631737167912,0.8667010009765624,0.12210428466796874,9.80665,20.0,101.3,50.0,0.0,0.0,1.618320610687023,-0.8396946564885496,0.6870229007633588
0.34,0.0,0.0,0.0,9.908931093698675,0.9145850341796874,0.05027823486328125,9.866505041503906,20.0,101.3,50.0,0.0,0.0,3.5267175572519083,-0.549618320610687,0.4122137404580153
0.34,0.0,0.0,0.0,9.908931093698675,0.9145850341796874,0.05027823486328125,9.866505041503906,20.0,101.3,50.0,0.0,0.0,3.5267175572519083,-0.549618320610687,0.4122137404580153
0.36,0.0,0.0,0.0,10.129623896520336,0.8475473876953125,0.055066638183593745,10.09395419921875,20.0,101.3,50.0,0.0,0.0,1.0534351145038168,-1.1603053435114503,0.48854961832061067
0.4,0.0,0.0,0.0,9.976053683465176,0.8667010009765624,0.00718260498046875,9.938331091308592,20.0,101.3,50.0,0.0,0.0,-0.6106870229007634,-1.297709923664122,0.4580152671755725
0.4,0.0,0.0,0.0,9.976053683465176,0.8667010009765624,0.00718260498046875,9.938331091308592,20.0,101.3,50.0,0.0,0.0,-0.6106870229007634,-1.297709923664122,0.4580152671755725
0.4,0.0,0.0,0.0,9.976053683465176,0.8667010009765624,0.00718260498046875,9.938331091308592,20.0,101.3,50.0,0.0,0.0,-0.6106870229007634,-1.297709923664122,0.4580152671755725
0.41,0.0,0.0,0.0,10.209620951530589,0.8355763793945312,0.016759411621093748,10.175357055664062,20.0,101.3,50.0,0.0,0.0,1.1908396946564885,-1.099236641221374,0.6412213740458015
0.42,0.0,0.0,0.0,10.131762150019572,0.8451531860351562,0.04548983154296875,10.096348400878906,20.0,101.3,50.0,0.0,0.0,0.21374045801526717,-1.282442748091603,0.549618320610687
0.43,0.0,0.0,0.0,10.131762150019572,0.8451531860351562,0.04548983154296875,10.096348400878906,20.0,101.3,50.0,0.0,0.0,0.21374045801526717,-1.282442748091603,0.549618320610687
0.43,0.0,0.0,0.0,10.131762150019572,0.8451531860351562,0.04548983154296875,10.096348400878906,20.0,101.3,50.0,0.0,0.0,0.21374045801526717,-1.282442748091603,0.549618320610687
0.45,0.0,0.0,0.0,10.026567249320989,0.842758984375,-0.040701428222656245,9.991003527832031,20.0,101.3,50.0,0.0,0.0,1.6793893129770991,-0.8396946564885496,0.5038167938931297
0.45,0.0,0.0,0.0,9.921812310213346,0.842758984375,0.076614453125,9.885658654785155,20.0,101.3,50.0,0.0,0.0,1.3129770992366412,-0.8549618320610687,0.6259541984732825
0.46,0.0,0.0,0.0,10.050130815185305,0.8667010009765624,0.0526724365234375,10.012551342773437,20.0,101.3,50.0,0.0,0.0,0.9923664122137404,-0.9923664122137404,0.6717557251908397
0.46,0.0,0.0,0.0,10.050130815185305,0.8667010009765624,0.0526724365234375,10.012551342773437,20.0,101.3,50.0,0.0,0.0,0.9923664122137404,-0.9923664122137404,0.6717557251908397
0.47,0.0,0.0,0.0,10.042644606896499,0.8643067993164062,0.016759411621093748,10.005368737792969,20.0,101.3,50.0,0.0,0.0,2.4885496183206106,-0.7633587786259542,0.8091603053435115
0.47,0.0,0.0,0.0,10.042644606896499,0.8643067993164062,0.016759411621093748,10.005368737792969,20.0,101.3,50.0,0.0,0.0,2.4885496183206106,-0.7633587786259542,0.8091603053435115
0.49,0.0,0.0,0.0,10.08266060612675,0.8571241943359375,0.0430956298828125,10.046070166015625,20.0,101.3,50.0,0.0,0.0,2.9770992366412212,-0.7786259541984732,0.7022900763358778
0.49,0.0,0.0,0.0,10.00326707372868,0.7613561279296874,0.011971008300781249,9.974244116210937,20.0,101.3,50.0,0.0,0.0,0.42748091603053434,-1.251908396946565,0.5038167938931297
0.52,0.0,0.0,0.0,10.078772027246211,0.8403647827148437,0.00239420166015625,10.043675964355469,20.0,101.3,50.0,0.0,0.0,-0.5954198473282443,-1.4045801526717556,0.366412213740458
0.53,0.0,0.0,0.0,10.078772027246211,0.8403647827148437,0.00239420166015625,10.043675964355469,20.0,101.3,50.0,0.0,0.0,-0.5954198473282443,-1.4045801526717556,0.366412213740458
0.53,0.0,0.0,0.0,9.99846533777621,0.8499415893554687,0.0047884033203125,9.962273107910155,20.0,101.3,50.0,0.0,0.0,0.8549618320610687,-1.0229007633587786,0.3969465648854962
0.54,0.0,0.0,0.0,9.99846533777621,0.8499415893554687,0.0047884033203125,9.962273107910155,20.0,101.3,50.0,0.0,0.0,0.8549618320610687,-1.0229007633587786,0.3969465648854962
0.54,0.0,0.0,0.0,9.99846533777621,0.8499415893554687,0.0047884033203125,9.962273107910155,20.0,101.3,50.0,0.0,0.0,0.8549618320610687,-1.0229007633587786,0.3969465648854962
0.54,0.0,0.0,0.0,9.99846533777621,0.8499415893554687,0.0047884033203125,9.962273107910155,20.0,101.3,50.0,0.0,0.0,0.8549618320610687,-1.0229007633587786,0.3969465648854962
0.54,0.0,0.0,0.0,10.044575961223302,0.8307879760742187,0.00718260498046875,10.01015714111328,20.0,101.3,50.0,0.0,0.0,3.6030534351145036,-0.6106870229007634,0.8854961832061069
0.55,0.0,0.0,0.0,10.044575961223302,0.8307879760742187,0.00718260498046875,10.01015714111328,20.0,101.3,50.0,0.0,0.0,3.6030534351145036,-0.6106870229007634,0.8854961832061069
0.55,0.0,0.0,0.0,9.968691252479488,0.8044517578125,0.06943184814453125,9.935936889648437,20.0,101.3,50.0,0.0,0.0,4.900763358778626,-0.44274809160305345,0.9465648854961832
0.57,0.0,0.0,0.0,10.053066889367853,0.8451531860351562,0.0526724365234375,10.01733974609375,20.0,101.3,50.0,0.0,0.0,2.427480916030534,-0.7786259541984732,0.6412213740458015
0.58,0.0,0.0,0.0,10.053066889367853,0.8451531860351562,0.0526724365234375,10.01733974609375,20.0,101.3,50.0,0.0,0.0,2.427480916030534,-0.7786259541984732,0.6412213740458015
0.58,0.0,0.0,0.0,10.112725209116615,0.7876923461914062,0.01915361328125,10.081983190917969,20.0,101.3,50.0,0.0,0.0,1.633587786259542,-0.9007633587786259,0.5648854961832062
0.59,0.0,0.0,0.0,10.112725209116615,0.7876923461914062,0.01915361328125,10.081983190917969,20.0,101.3,50.0,0.0,0.0,1.633587786259542,-0.9007633587786259,0.5648854961832062
0.59,0.0,0.0,0.0,10.112725209116615,0.7876923461914062,0.01915361328125,10.081983190917969,20.0,101.3,50.0,0.0,0.0,1.633587786259542,-0.9007633587786259,0.5648854961832062
0.59,0.0,0.0,0.0,9.924223492947455,0.814028564453125,0.08140285644531249,9.890447058105469,20.0,101.3,50.0,0.0,0.0,3.877862595419847,-0.4580152671755725,0.6870229007633588
0.59,0.0,0.0,0.0,9.924223492947455,0.814028564453125,0.08140285644531249,9.890447058105469,20.0,101.3,50.0,0.0,0.0,3.877862595419847,-0.4580152671755725,0.6870229007633588
0.6,0.0,0.0,0.0,9.924223492947455,0.814028564453125,0.08140285644531249,9.890447058105469,20.0,101.3,50.0,0.0,0.0,3.877862595419847,-0.4580152671755725,0.6870229007633588
0.6,0.0,0.0,0.0,10.002474251231352,0.8116343627929687,0.02633621826171875,9.969455712890625,20.0,101.3,50.0,0.0,0.0,3.984732824427481,-0.48854961832061067,0.916030534351145
0.61,0.0,0.0,0.0,10.002474251231352,0.8116343627929687,0.02633621826171875,9.969455712890625,20.0,101.3,50.0,0.0,0.0,3.984732824427481,-0.48854961832061067,0.916030534351145
0.61,0.0,0.0,0.0,10.002474251231352,0.8116343627929687,0.02633621826171875,9.969455712890625,20.0,101.3,50.0,0.0,0.0,3.984732824427481,-0.48854961832061067,0.916030534351145
0.61,0.0,0.0,0.0,10.002474251231352,0.8116343627929687,0.02633621826171875,9.969455712890625,20.0,101.3,50.0,0.0,0.0,3.984732824427481,-0.48854961832061067,0.916030534351145
0.62,0.0,0.0,0.0,9.88971909200632,0.8044517578125,-0.01915361328125,9.85692823486328,20.0,101.3,50.0,0.0,0.0,6.244274809160306,-0.13740458015267176,1.2061068702290076
0.62,0.0,0.0,0.0,9.88971909200632,0.8044517578125,-0.01915361328125,9.85692823486328,20.0,101.3,50.0,0.0,0.0,6.244274809160306,-0.13740458015267176,1.2061068702290076
0.62,0.0,0.0,0.0,9.88971909200632,0.8044517578125,-0.01915361328125,9.85692823486328,20.0,101.3,50.0,0.0,0.0,6.244274809160306,-0.13740458015267176,1.2061068702290076
0.62,0.0,0.0,0.0,9.88971909200632,0.8044517578125,-0.01915361328125,9.85692823486328,20.0,101.3,50.0,0.0,0.0,6.244274809160306,-0.13740458015267176,1.2061068702290076
0.63,0.0,0.0,0.0,9.981249839290403,0.7852981445312499,0.011971008300781249,9.950302099609374,20.0,101.3,50.0,0.0,0.0,6.916030534351145,-0.13740458015267176,0.9312977099236641
0.63,0.0,0.0,0.0,9.981249839290403,0.7852981445312499,0.011971008300781249,9.950302099609374,20.0,101.3,50.0,0.0,0.0,6.916030534351145,-0.13740458015267176,0.9312977099236641
0.64,0.0,0.0,0.0,9.981249839290403,0.7852981445312499,0.011971008300781249,9.950302099609374,20.0,101.3,50.0,0.0,0.0,6.916030534351145,-0.13740458015267176,0.9312977099236641
0.64,0.0,0.0,0.0,10.086187660363347,0.8714894042968749,-0.00718260498046875,10.04846436767578,20.0,101.3,50.0,0.0,0.0,4.290076335877862,-0.4122137404580153,0.7022900763358778
0.64,0.0,0.0,0.0,10.086187660363347,0.8714894042968749,-0.00718260498046875,10.04846436767578,20.0,101.3,50.0,0.0,0.0,4.290076335877862,-0.4122137404580153,0.7022900763358778
0.64,0.0,0.0,0.0,10.086187660363347,0.8714894042968749,-0.00718260498046875,10.04846436767578,20.0,101.3,50.0,0.0,0.0,4.290076335877862,-0.4122137404580153,0.7022900763358778
0.65,0.0,0.0,0.0,10.043032448538012,0.8403647827148437,0.031124621582031248,10.007762939453125,20.0,101.3,50.0,0.0,0.0,4.458015267175573,-0.5343511450381679,1.0381679389312977
0.65,0.0,0.0,0.0,10.043032448538012,0.8403647827148437,0.031124621582031248,10.007762939453125,20.0,101.3,50.0,0.0,0.0,4.458015267175573,-0.5343511450381679,1.0381679389312977
0.66,0.0,0.0,0.0,10.043032448538012,0.8403647827148437,0.031124621582031248,10.007762939453125,20.0,101.3,50.0,0.0,0.0,4.458015267175573,-0.5343511450381679,1.0381679389312977
0.66,0.0,0.0,0.0,10.043032448538012,0.8403647827148437,0.031124621582031248,10.007762939453125,20.0,101.3,50.0,0.0,0.0,4.458015267175573,-0.5343511450381679,1.0381679389312977
0.66,0.0,0.0,0.0,10.054172720421603,0.7996633544921875,0.062249243164062495,10.022128149414062,20.0,101.3,50.0,0.0,0.0,5.282442748091603,-0.2900763358778626,0.9923664122137404
0.67,0.0,0.0,0.0,10.054172720421603,0.7996633544921875,0.062249243164062495,10.022128149414062,20.0,101.3,50.0,0.0,0.0,5.282442748091603,-0.2900763358778626,0.9923664122137404
0.67,0.0,0.0,0.0,10.054172720421603,0.7996633544921875,0.062249243164062495,10.022128149414062,20.0,101.3,50.0,0.0,0.0,5.282442748091603,-0.2900763358778626,0.9923664122137404
0.67,0.0,0.0,0.0,10.054172720421603,0.7996633544921875,0.062249243164062495,10.022128149414062,20.0,101.3,50.0,0.0,0.0,5.282442748091603,-0.2900763358778626,0.9923664122137404
0.67,0.0,0.0,0.0,9.95656503308557,0.7733271362304687,-0.05027823486328125,9.926360083007811,20.0,101.3,50.0,0.0,0.0,6.595419847328245,0.030534351145038167,1.1908396946564885
0.68,0.0,0.0,0.0,9.95656503308557,0.7733271362304687,-0.05027823486328125,9.926360083007811,20.0,101.3,50.0,0.0,0.0,6.595419847328245,0.030534351145038167,1.1908396946564885
0.68,0.0,0.0,0.0,9.95656503308557,0.7733271362304687,-0.05027823486328125,9.926360083007811,20.0,101.3,50.0,0.0,0.0,6.595419847328245,0.030534351145038167,1.1908396946564885
0.68,0.0,0.0,0.0,9.95656503308557,0.7733271362304687,-0.05027823486328125,9.926360083007811,20.0,101.3,50.0,0.0,0.0,6.595419847328245,0.030534351145038167,1.1908396946564885
0.69,0.0,0.0,0.0,9.95656503308557,0.7733271362304687,-0.05027823486328125,9.926360083007811,20.0,101.3,50.0,0.0,0.0,6.595419847328245,0.030534351145038167,1.1908396946564885
0.69,0.0,0.0,0.0,9.968896820180131,0.8667010009765624,0.0047884033203125,9.931148486328125,20.0,101.3,50.0,0.0,0.0,4.152671755725191,-0.4122137404580153,1.0076335877862594
0.69,0.0,0.0,0.0,9.968896820180131,0.8667010009765624,0.0047884033203125,9.931148486328125,20.0,101.3,50.0,0.0,0.0,4.152671755725191,-0.4122137404580153,1.0076335877862594
0.69,0.0,0.0,0.0,9.968896820180131,0.8667010009765624,0.0047884033203125,9.931148486328125,20.0,101.3,50.0,0.0,0.0,4.152671755725191,-0.4122137404580153,1.0076335877862594
0.7,0.0,0.0,0.0,10.096096316741365,0.8475473876953125,0.02154781494140625,10.060435375976562,20.0,101.3,50.0,0.0,0.0,3.984732824427481,-0.6106870229007634,1.251908396946565
0.7,0.0,0.0,0.0,10.096096316741365,0.8475473876953125,0.02154781494140625,10.060435375976562,20.0,101.3,50.0,0.0,0.0,3.984732824427481,-0.6106870229007634,1.251908396946565
0.71,0.0,0.0,0.0,10.096096316741365,0.8475473876953125,0.02154781494140625,10.060435375976562,20.0,101.3,50.0,0.0,0.0,3.984732824427481,-0.6106870229007634,1.251908396946565
0.71,0.0,0.0,0.0,10.096096316741365,0.8475473876953125,0.02154781494140625,10.060435375976562,20.0,101.3,50.0,0.0,0.0,3.984732824427481,-0.6106870229007634,1.251908396946565
0.72,0.0,0.0,0.0,10.128629304914302,0.8355763793945312,0.055066638183593745,10.09395419921875,20.0,101.3,50.0,0.0,0.0,1.1908396946564885,-0.9770992366412213,0.4122137404580153
0.73,0.0,0.0,0.0,10.128629304914302,0.8355763793945312,0.055066638183593745,10.09395419921875,20.0,101.3,50.0,0.0,0.0,1.1908396946564885,-0.9770992366412213,0.4122137404580153
0.73,0.0,0.0,0.0,10.128629304914302,0.8355763793945312,0.055066638183593745,10.09395419921875,20.0,101.3,50.0,0.0,0.0,1.1908396946564885,-0.9770992366412213,0.4122137404580153
0.74,0.0,0.0,0.0,9.910985093085198,0.7996633544921875,0.062249243164062495,9.878476049804688,20.0,101.3,50.0,0.0,0.0,2.8702290076335877,-0.6259541984732825,0.4580152671755725
0.74,0.0,0.0,0.0,9.910985093085198,0.7996633544921875,0.062249243164062495,9.878476049804688,20.0,101.3,50.0,0.0,0.0,2.8702290076335877,-0.6259541984732825,0.4580152671755725
0.74,0.0,0.0,0.0,9.910985093085198,0.7996633544921875,0.062249243164062495,9.878476049804688,20.0,101.3,50.0,0.0,0.0,2.8702290076335877,-0.6259541984732825,0.4580152671755725
0.74,0.0,0.0,0.0,9.910985093085198,0.7996633544921875,0.062249243164062495,9.878476049804688,20.0,101.3,50.0,0.0,0.0,2.8702290076335877,-0.6259541984732825,0.4580152671755725
0.75,0.0,0.0,0.0,9.993223640720483,0.842758984375,0.0526724365234375,9.957484704589843,20.0,101.3,50.0,0.0,0.0,6.076335877862595,-0.2748091603053435,0.7022900763358778
0.75,0.0,0.0,0.0,9.993223640720483,0.842758984375,0.0526724365234375,9.957484704589843,20.0,101.3,50.0,0.0,0.0,6.076335877862595,-0.2748091603053435,0.7022900763358778
0.76,0.0,0.0,0.0,9.993223640720483,0.842758984375,0.0526724365234375,9.957484704589843,20.0,101.3,50.0,0.0,0.0,6.076335877862595,-0.2748091603053435,0.7022900763358778
0.76,0.0,0.0,0.0,9.975399484349479,0.8307879760742187,0.01915361328125,9.94072529296875,20.0,101.3,50.0,0.0,0.0,4.213740458015267,-0.6564885496183206,0.7633587786259542
0.76,0.0,0.0,0.0,9.975399484349479,0.8307879760742187,0.01915361328125,9.94072529296875,20.0,101.3,50.0,0.0,0.0,4.213740458015267,-0.6564885496183206,0.7633587786259542
0.77,0.0,0.0,0.0,9.975399484349479,0.8307879760742187,0.01915361328125,9.94072529296875,20.0,101.3,50.0,0.0,0.0,4.213740458015267,-0.6564885496183206,0.7633587786259542
0.77,0.0,0.0,0.0,9.975399484349479,0.8307879760742187,0.01915361328125,9.94072529296875,20.0,101.3,50.0,0.0,0.0,4.213740458015267,-0.6564885496183206,0.7633587786259542
0.77,0.0,0.0,0.0,10.059892364134473,0.842758984375,0.011971008300781249,10.024522351074218,20.0,101.3,50.0,0.0,0.0,6.488549618320611,-0.3053435114503817,1.1145038167938932
0.77,0.0,0.0,0.0,10.059892364134473,0.842758984375,0.011971008300781249,10.024522351074218,20.0,101.3,50.0,0.0,0.0,6.488549618320611,-0.3053435114503817,1.1145038167938932
0.78,0.0,0.0,0.0,10.059892364134473,0.842758984375,0.011971008300781249,10.024522351074218,20.0,101.3,50.0,0.0,0.0,6.488549618320611,-0.3053435114503817,1.1145038167938932
0.78,0.0,0.0,0.0,10.06425272535935,0.7781155395507812,0.023942016601562498,10.034099157714843,20.0,101.3,50.0,0.0,0.0,4.625954198473282,-0.5190839694656488,0.6717557251908397
0.79,0.0,0.0,0.0,10.06425272535935,0.7781155395507812,0.023942016601562498,10.034099157714843,20.0,101.3,50.0,0.0,0.0,4.625954198473282,-0.5190839694656488,0.6717557251908397
0.79,0.0,0.0,0.0,10.06425272535935,0.7781155395507812,0.023942016601562498,10.034099157714843,20.0,101.3,50.0,0.0,0.0,4.625954198473282,-0.5190839694656488,0.6717557251908397
0.79,0.0,0.0,0.0,10.06425272535935,0.7781155395507812,0.023942016601562498,10.034099157714843,20.0,101.3,50.0,0.0,0.0,4.625954198473282,-0.5190839694656488,0.6717557251908397
0.79,0.0,0.0,0.0,10.003769037994084,0.82360537109375,0.08379705810546874,9.969455712890625,20.0,101.3,50.0,0.0,0.0,6.305343511450381,0.0,0.9007633587786259
0.81,0.0,0.0,0.0,10.082363549668262,0.8259995727539062,0.011971008300781249,10.04846436767578,20.0,101.3,50.0,0.0,0.0,3.2977099236641223,-0.6564885496183206,0.6870229007633588
0.82,0.0,0.0,0.0,10.082363549668262,0.8259995727539062,0.011971008300781249,10.04846436767578,20.0,101.3,50.0,0.0,0.0,3.2977099236641223,-0.6564885496183206,0.6870229007633588
0.82,0.0,0.0,0.0,9.965886195454749,0.8307879760742187,0.031124621582031248,9.931148486328125,20.0,101.3,50.0,0.0,0.0,1.7404580152671756,-0.7633587786259542,0.5038167938931297
0.83,0.0,0.0,0.0,9.965886195454749,0.8307879760742187,0.031124621582031248,9.931148486328125,20.0,101.3,50.0,0.0,0.0,1.7404580152671756,-0.7633587786259542,0.5038167938931297
0.83,0.0,0.0,0.0,9.965886195454749,0.8307879760742187,0.031124621582031248,9.931148486328125,20.0,101.3,50.0,0.0,0.0,1.7404580152671756,-0.7633587786259542,0.5038167938931297
0.83,0.0,0.0,0.0,10.006292230248393,0.8283937744140625,0.0430956298828125,9.97184991455078,20.0,101.3,50.0,0.0,0.0,3.4656488549618323,-0.6106870229007634,0.6412213740458015
0.83,0.0,0.0,0.0,10.006292230248393,0.8283937744140625,0.0430956298828125,9.97184991455078,20.0,101.3,50.0,0.0,0.0,3.4656488549618323,-0.6106870229007634,0.6412213740458015
0.84,0.0,0.0,0.0,10.006292230248393,0.8283937744140625,0.0430956298828125,9.97184991455078,20.0,101.3,50.0,0.0,0.0,3.4656488549618323,-0.6106870229007634,0.6412213740458015
0.84,0.0,0.0,0.0,10.077326755083558,0.8499415893554687,0.0526724365234375,10.041281762695311,20.0,101.3,50.0,0.0,0.0,4.549618320610687,-0.3511450381679389,0.6412213740458015
0.85,0.0,0.0,0.0,10.077326755083558,0.8499415893554687,0.0526724365234375,10.041281762695311,20.0,101.3,50.0,0.0,0.0,4.549618320610687,-0.3511450381679389,0.6412213740458015
0.85,0.0,0.0,0.0,10.077326755083558,0.8499415893554687,0.0526724365234375,10.041281762695311,20.0,101.3,50.0,0.0,0.0,4.549618320610687,-0.3511450381679389,0.6412213740458015
0.85,0.0,0.0,0.0,10.077326755083558,0.8499415893554687,0.0526724365234375,10.041281762695311,20.0,101.3,50.0,0.0,0.0,4.549618320610687,-0.3511450381679389,0.6412213740458015
0.86,0.0,0.0,0.0,10.043682813082555,0.8188169677734375,0.0430956298828125,10.01015714111328,20.0,101.3,50.0,0.0,0.0,5.9541984732824424,-0.13740458015267176,0.8549618320610687
0.86,0.0,0.0,0.0,10.043682813082555,0.8188169677734375,0.0430956298828125,10.01015714111328,20.0,101.3,50.0,0.0,0.0,5.9541984732824424,-0.13740458015267176,0.8549618320610687
0.86,0.0,0.0,0.0,10.043682813082555,0.8188169677734375,0.0430956298828125,10.01015714111328,20.0,101.3,50.0,0.0,0.0,5.9541984732824424,-0.13740458015267176,0.8549618320610687
0.86,0.0,0.0,0.0,10.043682813082555,0.8188169677734375,0.0430956298828125,10.01015714111328,20.0,101.3,50.0,0.0,0.0,5.9541984732824424,-0.13740458015267176,0.8549618320610687
0.87,0.0,0.0,0.0,10.106026170743103,0.852335791015625,0.011971008300781249,10.070012182617187,20.0,101.3,50.0,0.0,0.0,7.358778625954199,0.0,1.2671755725190839
0.87,0.0,0.0,0.0,10.106026170743103,0.852335791015625,0.011971008300781249,10.070012182617187,20.0,101.3,50.0,0.0,0.0,7.358778625954199,0.0,1.2671755725190839
0.88,0.0,0.0,0.0,10.106026170743103,0.852335791015625,0.011971008300781249,10.070012182617187,20.0,101.3,50.0,0.0,0.0,7.358778625954199,0.0,1.2671755725190839
0.88,0.0,0.0,0.0,9.933367261685184,0.86191259765625,0.1149216796875,9.89523546142578,20.0,101.3,50.0,0.0,0.0,5.282442748091603,-0.2748091603053435,1.1603053435114503
0.88,0.0,0.0,0.0,9.933367261685184,0.86191259765625,0.1149216796875,9.89523546142578,20.0,101.3,50.0,0.0,0.0,5.282442748091603,-0.2748091603053435,1.1603053435114503
0.88,0.0,0.0,0.0,9.933367261685184,0.86191259765625,0.1149216796875,9.89523546142578,20.0,101.3,50.0,0.0,0.0,5.282442748091603,-0.2748091603053435,1.1603053435114503
0.89,0.0,0.0,0.0,10.0259620852261,0.8643067993164062,0.023942016601562498,9.988609326171874,20.0,101.3,50.0,0.0,0.0,5.450381679389313,-0.24427480916030533,1.1145038167938932
0.89,0.0,0.0,0.0,10.0259620852261,0.8643067993164062,0.023942016601562498,9.988609326171874,20.0,101.3,50.0,0.0,0.0,5.450381679389313,-0.24427480916030533,1.1145038167938932
0.9,0.0,0.0,0.0,10.0259620852261,0.8643067993164062,0.023942016601562498,9.988609326171874,20.0,101.3,50.0,0.0,0.0,5.450381679389313,-0.24427480916030533,1.1145038167938932
0.9,0.0,0.0,0.0,10.0259620852261,0.8643067993164062,0.023942016601562498,9.988609326171874,20.0,101.3,50.0,0.0,0.0,5.450381679389313,-0.24427480916030533,1.1145038167938932
0.9,0.0,0.0,0.0,10.0259620852261,0.8643067993164062,0.023942016601562498,9.988609326171874,20.0,101.3,50.0,0.0,0.0,5.450381679389313,-0.24427480916030533,1.1145038167938932
0.9,0.0,0.0,0.0,9.917793910915591,0.7661445312499999,-0.04548983154296875,9.888052856445311,20.0,101.3,50.0,0.0,0.0,4.320610687022901,-0.32061068702290074,0.6412213740458015
0.91,0.0,0.0,0.0,9.917793910915591,0.7661445312499999,-0.04548983154296875,9.888052856445311,20.0,101.3,50.0,0.0,0.0,4.320610687022901,-0.32061068702290074,0.6412213740458015
0.91,0.0,0.0,0.0,9.917793910915591,0.7661445312499999,-0.04548983154296875,9.888052856445311,20.0,101.3,50.0,0.0,0.0,4.320610687022901,-0.32061068702290074,0.6412213740458015
0.92,0.0,0.0,0.0,9.973059875836412,0.8307879760742187,0.03591302490234375,9.938331091308592,20.0,101.3,50.0,0.0,0.0,3.053435114503817,-0.5954198473282443,0.8091603053435115
0.92,0.0,0.0,0.0,9.973059875836412,0.8307879760742187,0.03591302490234375,9.938331091308592,20.0,101.3,50.0,0.0,0.0,3.053435114503817,-0.5954198473282443,0.8091603053435115
0.93,0.0,0.0,0.0,10.056534783246267,0.8595183959960937,-0.00718260498046875,10.019733947753906,20.0,101.3,50.0,0.0,0.0,2.7938931297709924,-0.732824427480916,0.7786259541984732
0.93,0.0,0.0,0.0,10.056534783246267,0.8595183959960937,-0.00718260498046875,10.019733947753906,20.0,101.3,50.0,0.0,0.0,2.7938931297709924,-0.732824427480916,0.7786259541984732
0.93,0.0,0.0,0.0,10.056534783246267,0.8595183959960937,-0.00718260498046875,10.019733947753906,20.0,101.3,50.0,0.0,0.0,2.7938931297709924,-0.732824427480916,0.7786259541984732
0.94,0.0,0.0,0.0,10.056534783246267,0.8595183959960937,-0.00718260498046875,10.019733947753906,20.0,101.3,50.0,0.0,0.0,2.7938931297709924,-0.732824427480916,0.7786259541984732
0.94,0.0,0.0,0.0,10.056534783246267,0.8595183959960937,-0.00718260498046875,10.019733947753906,20.0,101.3,50.0,0.0,0.0,2.7938931297709924,-0.732824427480916,0.7786259541984732
0.94,0.0,0.0,0.0,9.935832467292373,0.833182177734375,0.12689268798828124,9.900023864746093,20.0,101.3,50.0,0.0,0.0,4.1679389312977095,-0.44274809160305345,0.8244274809160306
0.94,0.0,0.0,0.0,9.935832467292373,0.833182177734375,0.12689268798828124,9.900023864746093,20.0,101.3,50.0,0.0,0.0,4.1679389312977095,-0.44274809160305345,0.8244274809160306
0.95,0.0,0.0,0.0,10.090482123233391,0.7781155395507812,0.00239420166015625,10.060435375976562,20.0,101.3,50.0,0.0,0.0,5.435114503816794,-0.2595419847328244,0.7175572519083969
1.0,0.0,0.0,0.0,10.034931752358215,0.8571241943359375,0.0383072265625,9.9981861328125,20.0,101.3,50.0,0.0,0.0,-0.8244274809160306,-1.450381679389313,0.3816793893129771
1.0,0.0,0.0,0.0,10.034931752358215,0.8571241943359375,0.0383072265625,9.9981861328125,20.0,101.3,50.0,0.0,0.0,-0.8244274809160306,-1.450381679389313,0.3816793893129771
1.0,0.0,0.0,0.0,10.034931752358215,0.8571241943359375,0.0383072265625,9.9981861328125,20.0,101.3,50.0,0.0,0.0,-0.8244274809160306,-1.450381679389313,0.3816793893129771
1.01,0.0,0.0,0.0,10.192791062035875,0.8044517578125,0.009576806640625,10.160991845703125,20.0,101.3,50.0,0.0,0.0,2.33587786259542,-0.8396946564885496,0.6870229007633588
1.01,0.0,0.0,0.0,10.192791062035875,0.8044517578125,0.009576806640625,10.160991845703125,20.0,101.3,50.0,0.0,0.0,2.33587786259542,-0.8396946564885496,0.6870229007633588
1.02,0.0,0.0,0.0,10.192791062035875,0.8044517578125,0.009576806640625,10.160991845703125,20.0,101.3,50.0,0.0,0.0,2.33587786259542,-0.8396946564885496,0.6870229007633588
1.06,0.0,0.0,0.0,9.989969314588606,0.833182177734375,0.0383072265625,9.955090502929687,20.0,101.3,50.0,0.0,0.0,-0.5038167938931297,-1.2671755725190839,0.48854961832061067
1.1,0.0,0.0,0.0,10.10890263167414,0.8283937744140625,0.04548983154296875,10.0748005859375,20.0,101.3,50.0,0.0,0.0,-0.4122137404580153,-1.3893129770992367,0.366412213740458
1.1,0.0,0.0,0.0,10.10890263167414,0.8283937744140625,0.04548983154296875,10.0748005859375,20.0,101.3,50.0,0.0,0.0,-0.4122137404580153,-1.3893129770992367,0.366412213740458
1.11,0.0,0.0,0.0,9.867117080625478,0.8475473876953125,-0.033518823242187495,9.830592016601562,20.0,101.3,50.0,0.0,0.0,0.24427480916030533,-1.1297709923664123,0.33587786259541985
1.11,0.0,0.0,0.0,9.867117080625478,0.8475473876953125,-0.033518823242187495,9.830592016601562,20.0,101.3,50.0,0.0,0.0,0.24427480916030533,-1.1297709923664123,0.33587786259541985
1.11,0.0,0.0,0.0,9.867117080625478,0.8475473876953125,-0.033518823242187495,9.830592016601562,20.0,101.3,50.0,0.0,0.0,0.24427480916030533,-1.1297709923664123,0.33587786259541985
1.12,0.0,0.0,0.0,9.995279243445292,0.8403647827148437,0.0143652099609375,9.95987890625,20.0,101.3,50.0,0.0,0.0,2.732824427480916,-0.8244274809160306,0.48854961832061067
1.12,0.0,0.0,0.0,9.995279243445292,0.8403647827148437,0.0143652099609375,9.95987890625,20.0,101.3,50.0,0.0,0.0,2.732824427480916,-0.8244274809160306,0.48854961832061067
1.13,0.0,0.0,0.0,9.995279243445292,0.8403647827148437,0.0143652099609375,9.95987890625,20.0,101.3,50.0,0.0,0.0,2.732824427480916,-0.8244274809160306,0.48854961832061067
1.13,0.0,0.0,0.0,10.129367547399776,0.8164227661132812,0.03591302490234375,10.096348400878906,20.0,101.3,50.0,0.0,0.0,3.3282442748091605,-0.7022900763358778,0.7633587786259542
1.14,0.0,0.0,0.0,10.129367547399776,0.8164227661132812,0.03591302490234375,10.096348400878906,20.0,101.3,50.0,0.0,0.0,3.3282442748091605,-0.7022900763358778,0.7633587786259542
1.14,0.0,0.0,0.0,10.129367547399776,0.8164227661132812,0.03591302490234375,10.096348400878906,20.0,101.3,50.0,0.0,0.0,3.3282442748091605,-0.7022900763358778,0.7633587786259542
1.14,0.0,0.0,0.0,10.129367547399776,0.8164227661132812,0.03591302490234375,10.096348400878906,20.0,101.3,50.0,0.0,0.0,3.3282442748091605,-0.7022900763358778,0.7633587786259542
1.14,0.0,0.0,0.0,10.062606560663882,0.8714894042968749,0.07422025146484375,10.024522351074218,20.0,101.3,50.0,0.0,0.0,4.702290076335878,-0.4732824427480916,0.8091603053435115
1.15,0.0,0.0,0.0,10.062606560663882,0.8714894042968749,0.07422025146484375,10.024522351074218,20.0,101.3,50.0,0.0,0.0,4.702290076335878,-0.4732824427480916,0.8091603053435115
1.15,0.0,0.0,0.0,10.062606560663882,0.8714894042968749,0.07422025146484375,10.024522351074218,20.0,101.3,50.0,0.0,0.0,4.702290076335878,-0.4732824427480916,0.8091603053435115
1.18,0.0,0.0,0.0,10.071614451169554,0.8403647827148437,0.00239420166015625,10.036493359375,20.0,101.3,50.0,0.0,0.0,0.33587786259541985,-1.2671755725190839,0.5038167938931297
1.2,0.0,0.0,0.0,10.048722495466194,0.8212111694335937,0.05746083984375,10.014945544433592,20.0,101.3,50.0,0.0,0.0,-0.3969465648854962,-1.3587786259541985,0.48854961832061067
1.2,0.0,0.0,0.0,10.065066025001657,0.8475473876953125,0.011971008300781249,10.029310754394531,20.0,101.3,50.0,0.0,0.0,-0.0916030534351145,-1.282442748091603,0.42748091603053434
1.23,0.0,0.0,0.0,10.012436555546147,0.8451531860351562,0.03591302490234375,9.976638317871092,20.0,101.3,50.0,0.0,0.0,-0.5801526717557252,-1.282442748091603,0.4122137404580153
1.24,0.0,0.0,0.0,10.012436555546147,0.8451531860351562,0.03591302490234375,9.976638317871092,20.0,101.3,50.0,0.0,0.0,-0.5801526717557252,-1.282442748091603,0.4122137404580153
1.24,0.0,0.0,0.0,10.103330446928773,0.8762778076171874,0.02633621826171875,10.065223779296874,20.0,101.3,50.0,0.0,0.0,1.282442748091603,-0.9770992366412213,0.5038167938931297
1.25,0.0,0.0,0.0,10.103330446928773,0.8762778076171874,0.02633621826171875,10.065223779296874,20.0,101.3,50.0,0.0,0.0,1.282442748091603,-0.9770992366412213,0.5038167938931297
1.25,0.0,0.0,0.0,10.103330446928773,0.8762778076171874,0.02633621826171875,10.065223779296874,20.0,101.3,50.0,0.0,0.0,1.282442748091603,-0.9770992366412213,0.5038167938931297
1.25,0.0,0.0,0.0,9.863253945744049,0.7685387329101562,0.07422025146484375,9.832986218261718,20.0,101.3,50.0,0.0,0.0,2.8244274809160306,-0.7938931297709924,0.732824427480916
1.25,0.0,0.0,0.0,9.863253945744049,0.7685387329101562,0.07422025146484375,9.832986218261718,20.0,101.3,50.0,0.0,0.0,2.8244274809160306,-0.7938931297709924,0.732824427480916
1.26,0.0,0.0,0.0,9.863253945744049,0.7685387329101562,0.07422025146484375,9.832986218261718,20.0,101.3,50.0,0.0,0.0,2.8244274809160306,-0.7938931297709924,0.732824427480916
1.26,0.0,0.0,0.0,10.040724298980289,0.8403647827148437,0.05027823486328125,10.005368737792969,20.0,101.3,50.0,0.0,0.0,4.351145038167939,-0.549618320610687,1.0534351145038168
1.3,0.0,0.0,0.0,0.8482340053528946,0.8475473876953125,0.03411737365722656,-0.0005985504150390625,20.0,101.3,50.0,0.0,0.0,-0.015267175572519083,-0.015267175572519083,-0.015267175572519083
1.3,0.0,0.0,0.0,10.19872748275418,0.8475473876953125,0.03591302490234375,10.16338604736328,20.0,101.3,50.0,0.0,0.0,-0.2595419847328244,-1.3129770992366412,0.3969465648854962
1.3,0.0,0.0,0.0,10.19872748275418,0.8475473876953125,0.03591302490234375,10.16338604736328,20.0,101.3,50.0,0.0,0.0,-0.2595419847328244,-1.3129770992366412,0.3969465648854962
1.33,0.0,0.0,0.0,10.071257875976357,0.9576806640625,0.1484405029296875,10.024522351074218,20.0,101.3,50.0,0.0,0.0,0.3511450381679389,-1.1297709923664123,0.44274809160305345
1.36,0.0,0.0,0.0,10.19628451796386,0.8451531860351562,0.06464344482421874,10.160991845703125,20.0,101.3,50.0,0.0,0.0,-0.4580152671755725,-1.3282442748091603,0.5648854961832062
1.4,0.0,0.0,0.0,0.7996633544921875,0.7996633544921875,0.0,0.0,20.0,101.3,50.0,0.0,0.0,0.0,0.0,0.0
1.4,0.0,0.0,0.0,0.7996633544921875,0.7996633544921875,0.0,0.0,20.0,101.3,50.0,0.0,0.0,0.0,0.0,0.0
1.4,0.0,0.0,0.0,0.7996633544921875,0.7996633544921875,0.0,0.0,20.0,101.3,50.0,0.0,0.0,0.0,0.0,0.0
1.4,0.0,0.0,0.0,10.003944662237165,0.7996633544921875,0.040701428222656245,9.97184991455078,20.0,101.3,50.0,0.0,0.0,-0.8854961832061069,-1.3435114503816794,0.3969465648854962
1.41,0.0,0.0,0.0,10.003944662237165,0.7996633544921875,0.040701428222656245,9.97184991455078,20.0,101.3,50.0,0.0,0.0,-0.8854961832061069,-1.3435114503816794,0.3969465648854962
1.41,0.0,0.0,0.0,9.980195948702674,0.8020575561523438,0.011971008300781249,9.947907897949218,20.0,101.3,50.0,0.0,0.0,0.549618320610687,-1.099236641221374,0.5190839694656488
1.41,0.0,0.0,0.0,9.980195948702674,0.8020575561523438,0.011971008300781249,9.947907897949218,20.0,101.3,50.0,0.0,0.0,0.549618320610687,-1.099236641221374,0.5190839694656488
1.41,0.0,0.0,0.0,9.980195948702674,0.8020575561523438,0.011971008300781249,9.947907897949218,20.0,101.3,50.0,0.0,0.0,0.549618320610687,-1.099236641221374,0.5190839694656488
1.42,0.0,0.0,0.0,10.078885490253121,0.8403647827148437,0.047884033203124995,10.043675964355469,20.0,101.3,50.0,0.0,0.0,4.213740458015267,-0.6564885496183206,0.8244274809160306
1.42,0.0,0.0,0.0,10.078885490253121,0.8403647827148437,0.047884033203124995,10.043675964355469,20.0,101.3,50.0,0.0,0.0,4.213740458015267,-0.6564885496183206,0.8244274809160306
1.43,0.0,0.0,0.0,10.078885490253121,0.8403647827148437,0.047884033203124995,10.043675964355469,20.0,101.3,50.0,0.0,0.0,4.213740458015267,-0.6564885496183206,0.8244274809160306
1.43,0.0,0.0,0.0,10.078885490253121,0.8403647827148437,0.047884033203124995,10.043675964355469,20.0,101.3,50.0,0.0,0.0,4.213740458015267,-0.6564885496183206,0.8244274809160306
1.43,0.0,0.0,0.0,10.078885490253121,0.8403647827148437,0.047884033203124995,10.043675964355469,20.0,101.3,50.0,0.0,0.0,4.213740458015267,-0.6564885496183206,0.8244274809160306
1.43,0.0,0.0,0.0,9.931872550092727,0.82360537109375,0.02633621826171875,9.897629663085937,20.0,101.3,50.0,0.0,0.0,4.442748091603053,-0.5038167938931297,0.7022900763358778
1.44,0.0,0.0,0.0,9.931872550092727,0.82360537109375,0.02633621826171875,9.897629663085937,20.0,101.3,50.0,0.0,0.0,4.442748091603053,-0.5038167938931297,0.7022900763358778
1.44,0.0,0.0,0.0,10.008025839962174,0.7900865478515624,-0.055066638183593745,9.976638317871092,20.0,101.3,50.0,0.0,0.0,5.068702290076335,-0.366412213740458,0.44274809160305345
1.45,0.0,0.0,0.0,10.008025839962174,0.7900865478515624,-0.055066638183593745,9.976638317871092,20.0,101.3,50.0,0.0,0.0,5.068702290076335,-0.366412213740458,0.44274809160305345
1.45,0.0,0.0,0.0,10.008025839962174,0.7900865478515624,-0.055066638183593745,9.976638317871092,20.0,101.3,50.0,0.0,0.0,5.068702290076335,-0.366412213740458,0.44274809160305345
1.45,0.0,0.0,0.0,10.008025839962174,0.7900865478515624,-0.055066638183593745,9.976638317871092,20.0,101.3,50.0,0.0,0.0,5.068702290076335,-0.366412213740458,0.44274809160305345
1.45,0.0,0.0,0.0,10.008025839962174,0.7900865478515624,-0.055066638183593745,9.976638317871092,20.0,101.3,50.0,0.0,0.0,5.068702290076335,-0.366412213740458,0.44274809160305345
1.46,0.0,0.0,0.0,9.949574479960217,0.7110778930664062,0.05746083984375,9.923965881347655,20.0,101.3,50.0,0.0,0.0,5.7251908396946565,-0.16793893129770993,0.8396946564885496
1.46,0.0,0.0,0.0,9.949574479960217,0.7110778930664062,0.05746083984375,9.923965881347655,20.0,101.3,50.0,0.0,0.0,5.7251908396946565,-0.16793893129770993,0.8396946564885496
1.48,0.0,0.0,0.0,9.996572095044147,0.82360537109375,0.07900865478515624,9.962273107910155,20.0,101.3,50.0,0.0,0.0,1.6946564885496183,-0.8702290076335878,0.6106870229007634
1.5,0.0,0.0,0.0,10.07940046544007,0.8738836059570312,0.05746083984375,10.041281762695311,20.0,101.3,50.0,0.0,0.0,-0.33587786259541985,-1.2671755725190839,0.4580152671755725
1.5,0.0,0.0,0.0,9.985196776317785,0.7733271362304687,0.047884033203124995,9.955090502929687,20.0,101.3,50.0,0.0,0.0,-0.6259541984732825,-1.3282442748091603,0.42748091603053434
1.52,0.0,0.0,0.0,10.083707198475803,0.8403647827148437,0.05746083984375,10.04846436767578,20.0,101.3,50.0,0.0,0.0,0.9923664122137404,-1.1603053435114503,0.7022900763358778
1.53,0.0,0.0,0.0,10.083707198475803,0.8403647827148437,0.05746083984375,10.04846436767578,20.0,101.3,50.0,0.0,0.0,0.9923664122137404,-1.1603053435114503,0.7022900763358778
1.53,0.0,0.0,0.0,10.128300488143198,0.833182177734375,0.01915361328125,10.09395419921875,20.0,101.3,50.0,0.0,0.0,1.2213740458015268,-0.9312977099236641,0.5801526717557252
1.54,0.0,0.0,0.0,10.022589420126994,0.82360537109375,0.040701428222656245,9.988609326171874,20.0,101.3,50.0,0.0,0.0,2.687022900763359,-0.6564885496183206,0.48854961832061067
1.54,0.0,0.0,0.0,10.022589420126994,0.82360537109375,0.040701428222656245,9.988609326171874,20.0,101.3,50.0,0.0,0.0,2.687022900763359,-0.6564885496183206,0.48854961832061067
1.55,0.0,0.0,0.0,10.022589420126994,0.82360537109375,0.040701428222656245,9.988609326171874,20.0,101.3,50.0,0.0,0.0,2.687022900763359,-0.6564885496183206,0.48854961832061067
1.55,0.0,0.0,0.0,10.022589420126994,0.82360537109375,0.040701428222656245,9.988609326171874,20.0,101.3,50.0,0.0,0.0,2.687022900763359,-0.6564885496183206,0.48854961832061067
1.55,0.0,0.0,0.0,10.011031808242201,0.7996633544921875,-0.0143652099609375,9.97903251953125,20.0,101.3,50.0,0.0,0.0,3.8473282442748094,-0.42748091603053434,0.5801526717557252
1.55,0.0,0.0,0.0,10.011031808242201,0.7996633544921875,-0.0143652099609375,9.97903251953125,20.0,101.3,50.0,0.0,0.0,3.8473282442748094,-0.42748091603053434,0.5801526717557252
1.56,0.0,0.0,0.0,10.011031808242201,0.7996633544921875,-0.0143652099609375,9.97903251953125,20.0,101.3,50.0,0.0,0.0,3.8473282442748094,-0.42748091603053434,0.5801526717557252
1.56,0.0,0.0,0.0,10.026279107722566,0.7493851196289062,0.031124621582031248,9.9981861328125,20.0,101.3,50.0,0.0,0.0,3.9236641221374047,-0.6106870229007634,0.5343511450381679
1.57,0.0,0.0,0.0,10.026279107722566,0.7493851196289062,0.031124621582031248,9.9981861328125,20.0,101.3,50.0,0.0,0.0,3.9236641221374047,-0.6106870229007634,0.5343511450381679
1.57,0.0,0.0,0.0,10.026279107722566,0.7493851196289062,0.031124621582031248,9.9981861328125,20.0,101.3,50.0,0.0,0.0,3.9236641221374047,-0.6106870229007634,0.5343511450381679
1.57,0.0,0.0,0.0,10.026279107722566,0.7493851196289062,0.031124621582031248,9.9981861328125,20.0,101.3,50.0,0.0,0.0,3.9236641221374047,-0.6106870229007634,0.5343511450381679
1.58,0.0,0.0,0.0,10.049900671929773,0.8643067993164062,0.047884033203124995,10.012551342773437,20.0,101.3,50.0,0.0,0.0,5.648854961832061,-0.2748091603053435,1.0229007633587786
1.58,0.0,0.0,0.0,10.049900671929773,0.8643067993164062,0.047884033203124995,10.012551342773437,20.0,101.3,50.0,0.0,0.0,5.648854961832061,-0.2748091603053435,1.0229007633587786
1.58,0.0,0.0,0.0,10.049900671929773,0.8643067993164062,0.047884033203124995,10.012551342773437,20.0,101.3,50.0,0.0,0.0,5.648854961832061,-0.2748091603053435,1.0229007633587786
1.58,0.0,0.0,0.0,10.049900671929773,0.8643067993164062,0.047884033203124995,10.012551342773437,20.0,101.3,50.0,0.0,0.0,5.648854961832061,-0.2748091603053435,1.0229007633587786
1.59,0.0,0.0,0.0,10.11740614611083,0.8164227661132812,0.02633621826171875,10.084377392578125,20.0,101.3,50.0,0.0,0.0,7.236641221374046,-0.10687022900763359,0.9770992366412213
1.59,0.0,0.0,0.0,10.11740614611083,0.8164227661132812,0.02633621826171875,10.084377392578125,20.0,101.3,50.0,0.0,0.0,7.236641221374046,-0.10687022900763359,0.9770992366412213
1.6,0.0,0.0,0.0,10.11740614611083,0.8164227661132812,0.02633621826171875,10.084377392578125,20.0,101.3,50.0,0.0,0.0,7.236641221374046,-0.10687022900763359,0.9770992366412213
1.6,0.0,0.0,0.0,9.996267032693959,0.82360537109375,-0.011971008300781249,9.962273107910155,20.0,101.3,50.0,0.0,0.0,4.732824427480916,-0.3969465648854962,0.6412213740458015
1.6,0.0,0.0,0.0,9.996267032693959,0.82360537109375,-0.011971008300781249,9.962273107910155,20.0,101.3,50.0,0.0,0.0,4.732824427480916,-0.3969465648854962,0.6412213740458015
1.61,0.0,0.0,0.0,9.996267032693959,0.82360537109375,-0.011971008300781249,9.962273107910155,20.0,101.3,50.0,0.0,0.0,4.732824427480916,-0.3969465648854962,0.6412213740458015
1.61,0.0,0.0,0.0,9.996267032693959,0.82360537109375,-0.011971008300781249,9.962273107910155,20.0,101.3,50.0,0.0,0.0,4.732824427480916,-0.3969465648854962,0.6412213740458015
1.61,0.0,0.0,0.0,9.996267032693959,0.82360537109375,-0.011971008300781249,9.962273107910155,20.0,101.3,50.0,0.0,0.0,4.732824427480916,-0.3969465648854962,0.6412213740458015
1.61,0.0,0.0,0.0,10.001824932368313,0.7422025146484375,0.009576806640625,9.974244116210937,20.0,101.3,50.0,0.0,0.0,5.465648854961832,-0.16793893129770993,0.732824427480916
1.62,0.0,0.0,0.0,10.001824932368313,0.7422025146484375,0.009576806640625,9.974244116210937,20.0,101.3,50.0,0.0,0.0,5.465648854961832,-0.16793893129770993,0.732824427480916
1.62,0.0,0.0,0.0,9.93215333064447,0.852335791015625,0.07422025146484375,9.89523546142578,20.0,101.3,50.0,0.0,0.0,4.6106870229007635,-0.3969465648854962,0.6106870229007634
1.63,0.0,0.0,0.0,9.93215333064447,0.852335791015625,0.07422025146484375,9.89523546142578,20.0,101.3,50.0,0.0,0.0,4.6106870229007635,-0.3969465648854962,0.6106870229007634
1.63,0.0,0.0,0.0,9.93215333064447,0.852335791015625,0.07422025146484375,9.89523546142578,20.0,101.3,50.0,0.0,0.0,4.6106870229007635,-0.3969465648854962,0.6106870229007634
1.63,0.0,0.0,0.0,9.93215333064447,0.852335791015625,0.07422025146484375,9.89523546142578,20.0,101.3,50.0,0.0,0.0,4.6106870229007635,-0.3969465648854962,0.6106870229007634
1.63,0.0,0.0,0.0,9.93215333064447,0.852335791015625,0.07422025146484375,9.89523546142578,20.0,101.3,50.0,0.0,0.0,4.6106870229007635,-0.3969465648854962,0.6106870229007634
1.64,0.0,0.0,0.0,9.93215333064447,0.852335791015625,0.07422025146484375,9.89523546142578,20.0,101.3,50.0,0.0,0.0,4.6106870229007635,-0.3969465648854962,0.6106870229007634
1.64,0.0,0.0,0.0,9.989834471685448,0.8595183959960937,0.0430956298828125,9.952696301269532,20.0,101.3,50.0,0.0,0.0,4.916030534351145,-0.16793893129770993,0.6106870229007634
1.65,0.0,0.0,0.0,9.989834471685448,0.8595183959960937,0.0430956298828125,9.952696301269532,20.0,101.3,50.0,0.0,0.0,4.916030534351145,-0.16793893129770993,0.6106870229007634
1.65,0.0,0.0,0.0,10.064586197552504,0.8379705810546875,0.08140285644531249,10.029310754394531,20.0,101.3,50.0,0.0,0.0,3.877862595419847,-0.42748091603053434,0.6412213740458015
1.65,0.0,0.0,0.0,10.064586197552504,0.8379705810546875,0.08140285644531249,10.029310754394531,20.0,101.3,50.0,0.0,0.0,3.877862595419847,-0.42748091603053434,0.6412213740458015
1.65,0.0,0.0,0.0,10.064586197552504,0.8379705810546875,0.08140285644531249,10.029310754394531,20.0,101.3,50.0,0.0,0.0,3.877862595419847,-0.42748091603053434,0.6412213740458015
1.66,0.0,0.0,0.0,10.108475637853344,0.8499415893554687,0.07422025146484375,10.072406384277343,20.0,101.3,50.0,0.0,0.0,5.6183206106870225,-0.24427480916030533,0.8244274809160306
1.66,0.0,0.0,0.0,10.108475637853344,0.8499415893554687,0.07422025146484375,10.072406384277343,20.0,101.3,50.0,0.0,0.0,5.6183206106870225,-0.24427480916030533,0.8244274809160306
1.67,0.0,0.0,0.0,10.108475637853344,0.8499415893554687,0.07422025146484375,10.072406384277343,20.0,101.3,50.0,0.0,0.0,5.6183206106870225,-0.24427480916030533,0.8244274809160306
1.67,0.0,0.0,0.0,10.108475637853344,0.8499415893554687,0.07422025146484375,10.072406384277343,20.0,101.3,50.0,0.0,0.0,5.6183206106870225,-0.24427480916030533,0.8244274809160306
1.67,0.0,0.0,0.0,10.053395601016454,0.7613561279296874,-0.00718260498046875,10.024522351074218,20.0,101.3,50.0,0.0,0.0,4.625954198473282,-0.4122137404580153,0.8702290076335878
1.67,0.0,0.0,0.0,10.053395601016454,0.7613561279296874,-0.00718260498046875,10.024522351074218,20.0,101.3,50.0,0.0,0.0,4.625954198473282,-0.4122137404580153,0.8702290076335878
1.68,0.0,0.0,0.0,10.053395601016454,0.7613561279296874,-0.00718260498046875,10.024522351074218,20.0,101.3,50.0,0.0,0.0,4.625954198473282,-0.4122137404580153,0.8702290076335878
1.68,0.0,0.0,0.0,9.903988413145155,0.8595183959960937,-0.047884033203124995,9.866505041503906,20.0,101.3,50.0,0.0,0.0,4.106870229007634,-0.5343511450381679,0.7786259541984732
1.69,0.0,0.0,0.0,9.903988413145155,0.8595183959960937,-0.047884033203124995,9.866505041503906,20.0,101.3,50.0,0.0,0.0,4.106870229007634,-0.5343511450381679,0.7786259541984732
1.69,0.0,0.0,0.0,9.903988413145155,0.8595183959960937,-0.047884033203124995,9.866505041503906,20.0,101.3,50.0,0.0,0.0,4.106870229007634,-0.5343511450381679,0.7786259541984732
1.69,0.0,0.0,0.0,9.903988413145155,0.8595183959960937,-0.047884033203124995,9.866505041503906,20.0,101.3,50.0,0.0,0.0,4.106870229007634,-0.5343511450381679,0.7786259541984732
1.72,0.0,0.0,0.0,10.10059910179272,0.8714894042968749,0.04548983154296875,10.062829577636718,20.0,101.3,50.0,0.0,0.0,-0.2595419847328244,-1.282442748091603,0.2595419847328244
1.72,0.0,0.0,0.0,10.10059910179272,0.8714894042968749,0.04548983154296875,10.062829577636718,20.0,101.3,50.0,0.0,0.0,-0.2595419847328244,-1.282442748091603,0.2595419847328244
1.73,0.0,0.0,0.0,10.123193685643088,0.7996633544921875,0.00239420166015625,10.091559997558592,20.0,101.3,50.0,0.0,0.0,0.7175572519083969,-1.0229007633587786,0.4732824427480916
1.73,0.0,0.0,0.0,10.123193685643088,0.7996633544921875,0.00239420166015625,10.091559997558592,20.0,101.3,50.0,0.0,0.0,0.7175572519083969,-1.0229007633587786,0.4732824427480916
1.74,0.0,0.0,0.0,10.123193685643088,0.7996633544921875,0.00239420166015625,10.091559997558592,20.0,101.3,50.0,0.0,0.0,0.7175572519083969,-1.0229007633587786,0.4732824427480916
1.74,0.0,0.0,0.0,10.123193685643088,0.7996633544921875,0.00239420166015625,10.091559997558592,20.0,101.3,50.0,0.0,0.0,0.7175572519083969,-1.0229007633587786,0.4732824427480916
1.74,0.0,0.0,0.0,10.123193685643088,0.7996633544921875,0.00239420166015625,10.091559997558592,20.0,101.3,50.0,0.0,0.0,0.7175572519083969,-1.0229007633587786,0.4732824427480916
1.75,0.0,0.0,0.0,9.827900357858628,0.7685387329101562,0.1197100830078125,9.797073193359374,20.0,101.3,50.0,0.0,0.0,5.32824427480916,-0.22900763358778625,0.8549618320610687
1.75,0.0,0.0,0.0,9.827900357858628,0.7685387329101562,0.1197100830078125,9.797073193359374,20.0,101.3,50.0,0.0,0.0,5.32824427480916,-0.22900763358778625,0.8549618320610687
1.75,0.0,0.0,0.0,9.827900357858628,0.7685387329101562,0.1197100830078125,9.797073193359374,20.0,101.3,50.0,0.0,0.0,5.32824427480916,-0.22900763358778625,0.8549618320610687
1.75,0.0,0.0,0.0,9.827900357858628,0.7685387329101562,0.1197100830078125,9.797073193359374,20.0,101.3,50.0,0.0,0.0,5.32824427480916,-0.22900763358778625,0.8549618320610687
1.76,0.0,0.0,0.0,9.972454626142488,0.7948749511718749,-0.00239420166015625,9.94072529296875,20.0,101.3,50.0,0.0,0.0,6.091603053435114,-0.183206106870229,0.9465648854961832
1.76,0.0,0.0,0.0,9.972454626142488,0.7948749511718749,-0.00239420166015625,9.94072529296875,20.0,101.3,50.0,0.0,0.0,6.091603053435114,-0.183206106870229,0.9465648854961832
1.77,0.0,0.0,0.0,9.972454626142488,0.7948749511718749,-0.00239420166015625,9.94072529296875,20.0,101.3,50.0,0.0,0.0,6.091603053435114,-0.183206106870229,0.9465648854961832
1.77,0.0,0.0,0.0,9.922674256904946,0.737414111328125,0.0,9.89523546142578,20.0,101.3,50.0,0.0,0.0,4.458015267175573,-0.5038167938931297,0.6564885496183206
1.77,0.0,0.0,0.0,9.922674256904946,0.737414111328125,0.0,9.89523546142578,20.0,101.3,50.0,0.0,0.0,4.458015267175573,-0.5038167938931297,0.6564885496183206
1.77,0.0,0.0,0.0,9.922674256904946,0.737414111328125,0.0,9.89523546142578,20.0,101.3,50.0,0.0,0.0,4.458015267175573,-0.5038167938931297,0.6564885496183206
1.78,0.0,0.0,0.0,10.078580928768323,0.8355763793945312,0.06464344482421874,10.043675964355469,20.0,101.3,50.0,0.0,0.0,4.534351145038168,-0.5648854961832062,0.7786259541984732
1.78,0.0,0.0,0.0,10.078580928768323,0.8355763793945312,0.06464344482421874,10.043675964355469,20.0,101.3,50.0,0.0,0.0,4.534351145038168,-0.5648854961832062,0.7786259541984732
1.79,0.0,0.0,0.0,10.078580928768323,0.8355763793945312,0.06464344482421874,10.043675964355469,20.0,101.3,50.0,0.0,0.0,4.534351145038168,-0.5648854961832062,0.7786259541984732
1.79,0.0,0.0,0.0,10.078580928768323,0.8355763793945312,0.06464344482421874,10.043675964355469,20.0,101.3,50.0,0.0,0.0,4.534351145038168,-0.5648854961832062,0.7786259541984732
1.79,0.0,0.0,0.0,10.148613323559694,0.7876923461914062,0.04548983154296875,10.117896215820313,20.0,101.3,50.0,0.0,0.0,4.442748091603053,-0.5190839694656488,0.9770992366412213
1.8,0.0,0.0,0.0,10.148613323559694,0.7876923461914062,0.04548983154296875,10.117896215820313,20.0,101.3,50.0,0.0,0.0,4.442748091603053,-0.5190839694656488,0.9770992366412213
1.8,0.0,0.0,0.0,9.942545284729817,0.7757213378906249,0.06943184814453125,9.911994873046874,20.0,101.3,50.0,0.0,0.0,5.282442748091603,-0.3053435114503817,0.9770992366412213
1.81,0.0,0.0,0.0,9.942545284729817,0.7757213378906249,0.06943184814453125,9.911994873046874,20.0,101.3,50.0,0.0,0.0,5.282442748091603,-0.3053435114503817,0.9770992366412213
1.81,0.0,0.0,0.0,9.942545284729817,0.7757213378906249,0.06943184814453125,9.911994873046874,20.0,101.3,50.0,0.0,0.0,5.282442748091603,-0.3053435114503817,0.9770992366412213
1.81,0.0,0.0,0.0,9.942545284729817,0.7757213378906249,0.06943184814453125,9.911994873046874,20.0,101.3,50.0,0.0,0.0,5.282442748091603,-0.3053435114503817,0.9770992366412213
1.81,0.0,0.0,0.0,9.942545284729817,0.7757213378906249,0.06943184814453125,9.911994873046874,20.0,101.3,50.0,0.0,0.0,5.282442748091603,-0.3053435114503817,0.9770992366412213
1.82,0.0,0.0,0.0,10.004067568723503,0.8595183959960937,-0.016759411621093748,9.967061511230469,20.0,101.3,50.0,0.0,0.0,6.717557251908397,0.15267175572519084,0.7938931297709924
1.82,0.0,0.0,0.0,10.004067568723503,0.8595183959960937,-0.016759411621093748,9.967061511230469,20.0,101.3,50.0,0.0,0.0,6.717557251908397,0.15267175572519084,0.7938931297709924
1.83,0.0,0.0,0.0,10.004067568723503,0.8595183959960937,-0.016759411621093748,9.967061511230469,20.0,101.3,50.0,0.0,0.0,6.717557251908397,0.15267175572519084,0.7938931297709924
1.83,0.0,0.0,0.0,9.873633654883216,0.8116343627929687,-0.031124621582031248,9.840168823242188,20.0,101.3,50.0,0.0,0.0,5.145038167938932,-0.13740458015267176,0.6412213740458015
1.83,0.0,0.0,0.0,9.873633654883216,0.8116343627929687,-0.031124621582031248,9.840168823242188,20.0,101.3,50.0,0.0,0.0,5.145038167938932,-0.13740458015267176,0.6412213740458015
1.84,0.0,0.0,0.0,9.873633654883216,0.8116343627929687,-0.031124621582031248,9.840168823242188,20.0,101.3,50.0,0.0,0.0,5.145038167938932,-0.13740458015267176,0.6412213740458015
1.84,0.0,0.0,0.0,9.873633654883216,0.8116343627929687,-0.031124621582031248,9.840168823242188,20.0,101.3,50.0,0.0,0.0,5.145038167938932,-0.13740458015267176,0.6412213740458015
1.84,0.0,0.0,0.0,10.025464376846788,0.7948749511718749,0.1005564697265625,9.993397729492187,20.0,101.3,50.0,0.0,0.0,6.412213740458015,0.030534351145038167,0.9770992366412213
1.84,0.0,0.0,0.0,10.025464376846788,0.7948749511718749,0.1005564697265625,9.993397729492187,20.0,101.3,50.0,0.0,0.0,6.412213740458015,0.030534351145038167,0.9770992366412213
1.85,0.0,0.0,0.0,10.025464376846788,0.7948749511718749,0.1005564697265625,9.993397729492187,20.0,101.3,50.0,0.0,0.0,6.412213740458015,0.030534351145038167,0.9770992366412213
1.85,0.0,0.0,0.0,10.070678165336135,0.8283937744140625,0.033518823242187495,10.036493359375,20.0,101.3,50.0,0.0,0.0,5.480916030534351,-0.2900763358778626,0.9312977099236641
1.86,0.0,0.0,0.0,10.071274684098938,0.8283937744140625,0.033518823242187495,10.037091909790039,20.0,101.3,50.0,0.0,0.0,-0.015267175572519083,-0.015267175572519083,-0.015267175572519083
1.86,0.0,0.0,0.0,10.451901006911852,0.8283937744140625,0.033518823242187495,10.41896707458496,20.0,101.3,50.0,0.0,0.0,-0.015267175572519083,-0.015267175572519083,-0.015267175572519083
1.86,0.0,0.0,0.0,10.070678165336135,0.8283937744140625,0.033518823242187495,10.036493359375,20.0,101.3,50.0,0.0,0.0,5.480916030534351,-0.2900763358778626,0.9312977099236641
1.86,0.0,0.0,0.0,10.071164532579855,0.8906430175781249,-0.00239420166015625,10.031704956054687,20.0,101.3,50.0,0.0,0.0,5.541984732824427,-0.32061068702290074,0.9618320610687023
1.87,0.0,0.0,0.0,10.071164532579855,0.8906430175781249,-0.00239420166015625,10.031704956054687,20.0,101.3,50.0,0.0,0.0,5.541984732824427,-0.32061068702290074,0.9618320610687023
1.87,0.0,0.0,0.0,10.071164532579855,0.8906430175781249,-0.00239420166015625,10.031704956054687,20.0,101.3,50.0,0.0,0.0,5.541984732824427,-0.32061068702290074,0.9618320610687023
1.87,0.0,0.0,0.0,10.071164532579855,0.8906430175781249,-0.00239420166015625,10.031704956054687,20.0,101.3,50.0,0.0,0.0,5.541984732824427,-0.32061068702290074,0.9618320610687023
1.88,0.0,0.0,0.0,9.983102636514948,0.8643067993164062,-0.04548983154296875,9.945513696289062,20.0,101.3,50.0,0.0,0.0,6.183206106870229,-0.10687022900763359,1.0229007633587786
1.88,0.0,0.0,0.0,9.983102636514948,0.8643067993164062,-0.04548983154296875,9.945513696289062,20.0,101.3,50.0,0.0,0.0,6.183206106870229,-0.10687022900763359,1.0229007633587786
1.88,0.0,0.0,0.0,9.983102636514948,0.8643067993164062,-0.04548983154296875,9.945513696289062,20.0,101.3,50.0,0.0,0.0,6.183206106870229,-0.10687022900763359,1.0229007633587786
1.88,0.0,0.0,0.0,9.983102636514948,0.8643067993164062,-0.04548983154296875,9.945513696289062,20.0,101.3,50.0,0.0,0.0,6.183206106870229,-0.10687022900763359,1.0229007633587786
1.89,0.0,0.0,0.0,9.983102636514948,0.8643067993164062,-0.04548983154296875,9.945513696289062,20.0,101.3,50.0,0.0,0.0,6.183206106870229,-0.10687022900763359,1.0229007633587786
1.89,0.0,0.0,0.0,9.824122744612477,0.7829039428710937,0.10773907470703124,9.792284790039062,20.0,101.3,50.0,0.0,0.0,4.763358778625954,-0.3511450381679389,1.2061068702290076
1.89,0.0,0.0,0.0,9.824122744612477,0.7829039428710937,0.10773907470703124,9.792284790039062,20.0,101.3,50.0,0.0,0.0,4.763358778625954,-0.3511450381679389,1.2061068702290076
1.89,0.0,0.0,0.0,9.824122744612477,0.7829039428710937,0.10773907470703124,9.792284790039062,20.0,101.3,50.0,0.0,0.0,4.763358778625954,-0.3511450381679389,1.2061068702290076
1.9,0.0,0.0,0.0,10.100091734172214,0.8667010009765624,0.011971008300781249,10.062829577636718,20.0,101.3,50.0,0.0,0.0,4.916030534351145,-0.3969465648854962,1.1145038167938932
1.9,0.0,0.0,0.0,10.100091734172214,0.8667010009765624,0.011971008300781249,10.062829577636718,20.0,101.3,50.0,0.0,0.0,4.916030534351145,-0.3969465648854962,1.1145038167938932
1.91,0.0,0.0,0.0,10.100091734172214,0.8667010009765624,0.011971008300781249,10.062829577636718,20.0,101.3,50.0,0.0,0.0,4.916030534351145,-0.3969465648854962,1.1145038167938932
1.91,0.0,0.0,0.0,10.100091734172214,0.8667010009765624,0.011971008300781249,10.062829577636718,20.0,101.3,50.0,0.0,0.0,4.916030534351145,-0.3969465648854962,1.1145038167938932
1.91,0.0,0.0,0.0,9.90281545191423,0.7589619262695312,-0.0047884033203125,9.873687646484374,20.0,101.3,50.0,0.0,0.0,4.351145038167939,-0.44274809160305345,0.8244274809160306
1.92,0.0,0.0,0.0,9.90281545191423,0.7589619262695312,-0.0047884033203125,9.873687646484374,20.0,101.3,50.0,0.0,0.0,4.351145038167939,-0.44274809160305345,0.8244274809160306
1.92,0.0,0.0,0.0,9.90281545191423,0.7589619262695312,-0.0047884033203125,9.873687646484374,20.0,101.3,50.0,0.0,0.0,4.351145038167939,-0.44274809160305345,0.8244274809160306
1.92,0.0,0.0,0.0,9.90281545191423,0.7589619262695312,-0.0047884033203125,9.873687646484374,20.0,101.3,50.0,0.0,0.0,4.351145038167939,-0.44274809160305345,0.8244274809160306
1.92,0.0,0.0,0.0,10.003657301552728,0.8547299926757812,0.016759411621093748,9.967061511230469,20.0,101.3,50.0,0.0,0.0,6.961832061068702,-0.12213740458015267,1.1755725190839694
1.93,0.0,0.0,0.0,10.003657301552728,0.8547299926757812,0.016759411621093748,9.967061511230469,20.0,101.3,50.0,0.0,0.0,6.961832061068702,-0.12213740458015267,1.1755725190839694
1.93,0.0,0.0,0.0,10.003657301552728,0.8547299926757812,0.016759411621093748,9.967061511230469,20.0,101.3,50.0,0.0,0.0,6.961832061068702,-0.12213740458015267,1.1755725190839694
1.94,0.0,0.0,0.0,10.094956465856441,0.8044517578125,-0.02154781494140625,10.062829577636718,20.0,101.3,50.0,0.0,0.0,4.534351145038168,-0.5954198473282443,1.0687022900763359
1.94,0.0,0.0,0.0,10.094956465856441,0.8044517578125,-0.02154781494140625,10.062829577636718,20.0,101.3,50.0,0.0,0.0,4.534351145038168,-0.5954198473282443,1.0687022900763359
1.94,0.0,0.0,0.0,10.094956465856441,0.8044517578125,-0.02154781494140625,10.062829577636718,20.0,101.3,50.0,0.0,0.0,4.534351145038168,-0.5954198473282443,1.0687022900763359
1.94,0.0,0.0,0.0,10.094956465856441,0.8044517578125,-0.02154781494140625,10.062829577636718,20.0,101.3,50.0,0.0,0.0,4.534351145038168,-0.5954198473282443,1.0687022900763359
1.95,0.0,0.0,0.0,9.984196983415885,0.8212111694335937,-0.03591302490234375,9.950302099609374,20.0,101.3,50.0,0.0,0.0,5.236641221374046,-0.22900763358778625,0.9618320610687023
1.95,0.0,0.0,0.0,9.984196983415885,0.8212111694335937,-0.03591302490234375,9.950302099609374,20.0,101.3,50.0,0.0,0.0,5.236641221374046,-0.22900763358778625,0.9618320610687023
1.95,0.0,0.0,0.0,9.984196983415885,0.8212111694335937,-0.03591302490234375,9.950302099609374,20.0,101.3,50.0,0.0,0.0,5.236641221374046,-0.22900763358778625,0.9618320610687023
1.96,0.0,0.0,0.0,10.103372431305957,0.8188169677734375,0.05027823486328125,10.070012182617187,20.0,101.3,50.0,0.0,0.0,4.9465648854961835,-0.10687022900763359,0.7175572519083969
1.96,0.0,0.0,0.0,10.103372431305957,0.8188169677734375,0.05027823486328125,10.070012182617187,20.0,101.3,50.0,0.0,0.0,4.9465648854961835,-0.10687022900763359,0.7175572519083969
1.97,0.0,0.0,0.0,10.103372431305957,0.8188169677734375,0.05027823486328125,10.070012182617187,20.0,101.3,50.0,0.0,0.0,4.9465648854961835,-0.10687022900763359,0.7175572519083969
1.97,0.0,0.0,0.0,10.103372431305957,0.8188169677734375,0.05027823486328125,10.070012182617187,20.0,101.3,50.0,0.0,0.0,4.9465648854961835,-0.10687022900763359,0.7175572519083969
1.97,0.0,0.0,0.0,9.922457333002265,0.8786720092773437,0.06464344482421874,9.883264453125,20.0,101.3,50.0,0.0,0.0,4.061068702290076,-0.4732824427480916,0.8854961832061069
1.97,0.0,0.0,0.0,9.922457333002265,0.8786720092773437,0.06464344482421874,9.883264453125,20.0,101.3,50.0,0.0,0.0,4.061068702290076,-0.4732824427480916,0.8854961832061069
1.98,0.0,0.0,0.0,9.922457333002265,0.8786720092773437,0.06464344482421874,9.883264453125,20.0,101.3,50.0,0.0,0.0,4.061068702290076,-0.4732824427480916,0.8854961832061069
1.98,0.0,0.0,0.0,10.056362357467059,0.8571241943359375,0.02633621826171875,10.019733947753906,20.0,101.3,50.0,0.0,0.0,3.969465648854962,-0.6259541984732825,0.8244274809160306
1.99,0.0,0.0,0.0,10.056362357467059,0.8571241943359375,0.02633621826171875,10.019733947753906,20.0,101.3,50.0,0.0,0.0,3.969465648854962,-0.6259541984732825,0.8244274809160306
1.99,0.0,0.0,0.0,10.056362357467059,0.8571241943359375,0.02633621826171875,10.019733947753906,20.0,101.3,50.0,0.0,0.0,3.969465648854962,-0.6259541984732825,0.8244274809160306
1.99,0.0,0.0,0.0,10.056362357467059,0.8571241943359375,0.02633621826171875,10.019733947753906,20.0,101.3,50.0,0.0,0.0,3.969465648854962,-0.6259541984732825,0.8244274809160306
2.0,0.0,0.0,0.0,0.7427820134562272,0.7422025146484375,0.029328970336914062,-0.0005985504150390625,20.0,101.3,50.0,0.0,0.0,-0.015267175572519083,-0.015267175572519083,-0.015267175572519083
2.0,0.0,0.0,0.0,10.038047014316426,0.7422025146484375,0.0909796630859375,10.01015714111328,20.0,101.3,50.0,0.0,0.0,5.770992366412214,-0.15267175572519084,0.7938931297709924
2.01,0.0,0.0,0.0,10.038047014316426,0.7422025146484375,0.0909796630859375,10.01015714111328,20.0,101.3,50.0,0.0,0.0,5.770992366412214,-0.15267175572519084,0.7938931297709924
2.01,0.0,0.0,0.0,10.096599343250933,0.7876923461914062,0.11013327636718749,10.065223779296874,20.0,101.3,50.0,0.0,0.0,3.9389312977099236,-0.6106870229007634,0.6259541984732825
2.01,0.0,0.0,0.0,10.096599343250933,0.7876923461914062,0.11013327636718749,10.065223779296874,20.0,101.3,50.0,0.0,0.0,3.9389312977099236,-0.6106870229007634,0.6259541984732825
2.01,0.0,0.0,0.0,10.096599343250933,0.7876923461914062,0.11013327636718749,10.065223779296874,20.0,101.3,50.0,0.0,0.0,3.9389312977099236,-0.6106870229007634,0.6259541984732825
2.02,0.0,0.0,0.0,10.179234641854865,0.814028564453125,0.011971008300781249,10.146626635742187,20.0,101.3,50.0,0.0,0.0,5.648854961832061,-0.16793893129770993,0.5648854961832062
2.02,0.0,0.0,0.0,10.179234641854865,0.814028564453125,0.011971008300781249,10.146626635742187,20.0,101.3,50.0,0.0,0.0,5.648854961832061,-0.16793893129770993,0.5648854961832062
2.03,0.0,0.0,0.0,10.179234641854865,0.814028564453125,0.011971008300781249,10.146626635742187,20.0,101.3,50.0,0.0,0.0,5.648854961832061,-0.16793893129770993,0.5648854961832062
2.03,0.0,0.0,0.0,10.179234641854865,0.814028564453125,0.011971008300781249,10.146626635742187,20.0,101.3,50.0,0.0,0.0,5.648854961832061,-0.16793893129770993,0.5648854961832062
2.03,0.0,0.0,0.0,9.919735126991677,0.7589619262695312,-0.06464344482421874,9.890447058105469,20.0,101.3,50.0,0.0,0.0,5.236641221374046,-0.33587786259541985,0.7786259541984732
2.04,0.0,0.0,0.0,9.919735126991677,0.7589619262695312,-0.06464344482421874,9.890447058105469,20.0,101.3,50.0,0.0,0.0,5.236641221374046,-0.33587786259541985,0.7786259541984732
2.04,0.0,0.0,0.0,9.919735126991677,0.7589619262695312,-0.06464344482421874,9.890447058105469,20.0,101.3,50.0,0.0,0.0,5.236641221374046,-0.33587786259541985,0.7786259541984732
2.04,0.0,0.0,0.0,9.919735126991677,0.7589619262695312,-0.06464344482421874,9.890447058105469,20.0,101.3,50.0,0.0,0.0,5.236641221374046,-0.33587786259541985,0.7786259541984732
2.04,0.0,0.0,0.0,10.02549010620264,0.8307879760742187,0.009576806640625,9.991003527832031,20.0,101.3,50.0,0.0,0.0,5.083969465648855,-0.3816793893129771,0.9923664122137404
2.05,0.0,0.0,0.0,10.02549010620264,0.8307879760742187,0.009576806640625,9.991003527832031,20.0,101.3,50.0,0.0,0.0,5.083969465648855,-0.3816793893129771,0.9923664122137404
2.05,0.0,0.0,0.0,10.02549010620264,0.8307879760742187,0.009576806640625,9.991003527832031,20.0,101.3,50.0,0.0,0.0,5.083969465648855,-0.3816793893129771,0.9923664122137404
2.06,0.0,0.0,0.0,9.879176122987193,0.7852981445312499,0.105344873046875,9.847351428222655,20.0,101.3,50.0,0.0,0.0,4.534351145038168,-0.5801526717557252,0.7633587786259542
2.06,0.0,0.0,0.0,9.879176122987193,0.7852981445312499,0.105344873046875,9.847351428222655,20.0,101.3,50.0,0.0,0.0,4.534351145038168,-0.5801526717557252,0.7633587786259542
2.06,0.0,0.0,0.0,9.879176122987193,0.7852981445312499,0.105344873046875,9.847351428222655,20.0,101.3,50.0,0.0,0.0,4.534351145038168,-0.5801526717557252,0.7633587786259542
2.06,0.0,0.0,0.0,9.879176122987193,0.7852981445312499,0.105344873046875,9.847351428222655,20.0,101.3,50.0,0.0,0.0,4.534351145038168,-0.5801526717557252,0.7633587786259542
2.07,0.0,0.0,0.0,10.087119665260218,0.8810662109374999,0.04548983154296875,10.04846436767578,20.0,101.3,50.0,0.0,0.0,6.442748091603053,-0.22900763358778625,0.8854961832061069
2.07,0.0,0.0,0.0,10.087119665260218,0.8810662109374999,0.04548983154296875,10.04846436767578,20.0,101.3,50.0,0.0,0.0,6.442748091603053,-0.22900763358778625,0.8854961832061069
2.07,0.0,0.0,0.0,10.087119665260218,0.8810662109374999,0.04548983154296875,10.04846436767578,20.0,101.3,50.0,0.0,0.0,6.442748091603053,-0.22900763358778625,0.8854961832061069
2.08,0.0,0.0,0.0,10.087119665260218,0.8810662109374999,0.04548983154296875,10.04846436767578,20.0,101.3,50.0,0.0,0.0,6.442748091603053,-0.22900763358778625,0.8854961832061069
2.08,0.0,0.0,0.0,10.087119665260218,0.8810662109374999,0.04548983154296875,10.04846436767578,20.0,101.3,50.0,0.0,0.0,6.442748091603053,-0.22900763358778625,0.8854961832061069
2.08,0.0,0.0,0.0,10.112373768069086,0.842758984375,-0.00239420166015625,10.077194787597655,20.0,101.3,50.0,0.0,0.0,6.351145038167939,-0.33587786259541985,1.1450381679389312
2.08,0.0,0.0,0.0,10.112373768069086,0.842758984375,-0.00239420166015625,10.077194787597655,20.0,101.3,50.0,0.0,0.0,6.351145038167939,-0.33587786259541985,1.1450381679389312
2.09,0.0,0.0,0.0,10.041126201177397,0.8451531860351562,0.05027823486328125,10.005368737792969,20.0,101.3,50.0,0.0,0.0,4.152671755725191,-0.5343511450381679,0.8244274809160306
2.09,0.0,0.0,0.0,10.041126201177397,0.8451531860351562,0.05027823486328125,10.005368737792969,20.0,101.3,50.0,0.0,0.0,4.152671755725191,-0.5343511450381679,0.8244274809160306
2.1,0.0,0.0,0.0,10.041126201177397,0.8451531860351562,0.05027823486328125,10.005368737792969,20.0,101.3,50.0,0.0,0.0,-0.015267175572519083,-0.015267175572519083,-0.015267175572519083
2.1,0.0,0.0,0.0,10.041126201177397,0.8451531860351562,0.05027823486328125,10.005368737792969,20.0,101.3,50.0,0.0,0.0,4.152671755725191,-0.5343511450381679,0.8244274809160306
2.1,0.0,0.0,0.0,10.041126201177397,0.8451531860351562,0.05027823486328125,10.005368737792969,20.0,101.3,50.0,0.0,0.0,4.152671755725191,-0.5343511450381679,0.8244274809160306
2.1,0.0,0.0,0.0,10.007545855177812,0.7852981445312499,0.031124621582031248,9.976638317871092,20.0,101.3,50.0,0.0,0.0,4.5038167938931295,-0.32061068702290074,0.732824427480916
2.11,0.0,0.0,0.0,10.007545855177812,0.7852981445312499,0.031124621582031248,9.976638317871092,20.0,101.3,50.0,0.0,0.0,4.5038167938931295,-0.32061068702290074,0.732824427480916
2.11,0.0,0.0,0.0,10.007545855177812,0.7852981445312499,0.031124621582031248,9.976638317871092,20.0,101.3,50.0,0.0,0.0,4.5038167938931295,-0.32061068702290074,0.732824427480916
2.11,0.0,0.0,0.0,10.007545855177812,0.7852981445312499,0.031124621582031248,9.976638317871092,20.0,101.3,50.0,0.0,0.0,4.5038167938931295,-0.32061068702290074,0.732824427480916
2.12,0.0,0.0,0.0,9.881626713655415,0.7900865478515624,0.06943184814453125,9.849745629882811,20.0,101.3,50.0,0.0,0.0,7.114503816793893,0.15267175572519084,1.0229007633587786
2.12,0.0,0.0,0.0,9.881626713655415,0.7900865478515624,0.06943184814453125,9.849745629882811,20.0,101.3,50.0,0.0,0.0,7.114503816793893,0.15267175572519084,1.0229007633587786
2.13,0.0,0.0,0.0,9.881626713655415,0.7900865478515624,0.06943184814453125,9.849745629882811,20.0,101.3,50.0,0.0,0.0,7.114503816793893,0.15267175572519084,1.0229007633587786
2.13,0.0,0.0,0.0,9.911667833584305,0.8667010009765624,0.016759411621093748,9.873687646484374,20.0,101.3,50.0,0.0,0.0,5.511450381679389,-0.2900763358778626,0.9465648854961832
2.13,0.0,0.0,0.0,9.911667833584305,0.8667010009765624,0.016759411621093748,9.873687646484374,20.0,101.3,50.0,0.0,0.0,5.511450381679389,-0.2900763358778626,0.9465648854961832
2.13,0.0,0.0,0.0,9.911667833584305,0.8667010009765624,0.016759411621093748,9.873687646484374,20.0,101.3,50.0,0.0,0.0,5.511450381679389,-0.2900763358778626,0.9465648854961832
2.14,0.0,0.0,0.0,10.085709121950183,0.8355763793945312,0.05985504150390625,10.050858569335936,20.0,101.3,50.0,0.0,0.0,6.244274809160306,-0.183206106870229,1.1450381679389312
2.14,0.0,0.0,0.0,10.085709121950183,0.8355763793945312,0.05985504150390625,10.050858569335936,20.0,101.3,50.0,0.0,0.0,6.244274809160306,-0.183206106870229,1.1450381679389312
2.15,0.0,0.0,0.0,10.085709121950183,0.8355763793945312,0.05985504150390625,10.050858569335936,20.0,101.3,50.0,0.0,0.0,6.244274809160306,-0.183206106870229,1.1450381679389312
2.15,0.0,0.0,0.0,10.085709121950183,0.8355763793945312,0.05985504150390625,10.050858569335936,20.0,101.3,50.0,0.0,0.0,6.244274809160306,-0.183206106870229,1.1450381679389312
2.15,0.0,0.0,0.0,10.010786164766149,0.9337386474609375,0.040701428222656245,9.967061511230469,20.0,101.3,50.0,0.0,0.0,4.076335877862595,-0.48854961832061067,0.6259541984732825
2.16,0.0,0.0,0.0,10.010786164766149,0.9337386474609375,0.040701428222656245,9.967061511230469,20.0,101.3,50.0,0.0,0.0,4.076335877862595,-0.48854961832061067,0.6259541984732825
2.16,0.0,0.0,0.0,10.010786164766149,0.9337386474609375,0.040701428222656245,9.967061511230469,20.0,101.3,50.0,0.0,0.0,4.076335877862595,-0.48854961832061067,0.6259541984732825
2.17,0.0,0.0,0.0,10.11007521250176,0.814028564453125,0.033518823242187495,10.077194787597655,20.0,101.3,50.0,0.0,0.0,5.435114503816794,-0.2900763358778626,1.1297709923664123
2.17,0.0,0.0,0.0,10.11007521250176,0.814028564453125,0.033518823242187495,10.077194787597655,20.0,101.3,50.0,0.0,0.0,5.435114503816794,-0.2900763358778626,1.1297709923664123
2.17,0.0,0.0,0.0,10.11007521250176,0.814028564453125,0.033518823242187495,10.077194787597655,20.0,101.3,50.0,0.0,0.0,5.435114503816794,-0.2900763358778626,1.1297709923664123
2.17,0.0,0.0,0.0,10.11007521250176,0.814028564453125,0.033518823242187495,10.077194787597655,20.0,101.3,50.0,0.0,0.0,5.435114503816794,-0.2900763358778626,1.1297709923664123
2.18,0.0,0.0,0.0,9.851767457783447,0.8355763793945312,0.028730419921875,9.816226806640625,20.0,101.3,50.0,0.0,0.0,6.625954198473282,-0.15267175572519084,1.282442748091603
2.18,0.0,0.0,0.0,9.851767457783447,0.8355763793945312,0.028730419921875,9.816226806640625,20.0,101.3,50.0,0.0,0.0,6.625954198473282,-0.15267175572519084,1.282442748091603
2.19,0.0,0.0,0.0,9.851767457783447,0.8355763793945312,0.028730419921875,9.816226806640625,20.0,101.3,50.0,0.0,0.0,6.625954198473282,-0.15267175572519084,1.282442748091603
2.19,0.0,0.0,0.0,9.930454386012489,0.8355763793945312,0.00718260498046875,9.89523546142578,20.0,101.3,50.0,0.0,0.0,4.748091603053435,-0.3816793893129771,0.9770992366412213
2.19,0.0,0.0,0.0,9.930454386012489,0.8355763793945312,0.00718260498046875,9.89523546142578,20.0,101.3,50.0,0.0,0.0,4.748091603053435,-0.3816793893129771,0.9770992366412213
2.19,0.0,0.0,0.0,9.930454386012489,0.8355763793945312,0.00718260498046875,9.89523546142578,20.0,101.3,50.0,0.0,0.0,4.748091603053435,-0.3816793893129771,0.9770992366412213
2.2,0.0,0.0,0.0,9.930454386012489,0.8355763793945312,0.00718260498046875,9.89523546142578,20.0,101.3,50.0,0.0,0.0,4.748091603053435,-0.3816793893129771,0.9770992366412213
2.21,0.0,0.0,0.0,9.930454386012489,0.8355763793945312,0.00718260498046875,9.89523546142578,20.0,101.3,50.0,0.0,0.0,4.748091603053435,-0.3816793893129771,0.9770992366412213
2.21,0.0,0.0,0.0,10.08923141749133,0.9026140258789062,0.07900865478515624,10.04846436767578,20.0,101.3,50.0,0.0,0.0,2.030534351145038,-0.8854961832061069,0.6259541984732825
2.22,0.0,0.0,0.0,10.08923141749133,0.9026140258789062,0.07900865478515624,10.04846436767578,20.0,101.3,50.0,0.0,0.0,2.030534351145038,-0.8854961832061069,0.6259541984732825
2.22,0.0,0.0,0.0,10.08923141749133,0.9026140258789062,0.07900865478515624,10.04846436767578,20.0,101.3,50.0,0.0,0.0,2.030534351145038,-0.8854961832061069,0.6259541984732825
2.22,0.0,0.0,0.0,10.08923141749133,0.9026140258789062,0.07900865478515624,10.04846436767578,20.0,101.3,50.0,0.0,0.0,2.030534351145038,-0.8854961832061069,0.6259541984732825
2.22,0.0,0.0,0.0,10.03426596780163,0.8499415893554687,0.01915361328125,9.9981861328125,20.0,101.3,50.0,0.0,0.0,3.7404580152671754,-0.4732824427480916,0.8244274809160306
2.23,0.0,0.0,0.0,10.03426596780163,0.8499415893554687,0.01915361328125,9.9981861328125,20.0,101.3,50.0,0.0,0.0,3.7404580152671754,-0.4732824427480916,0.8244274809160306
2.23,0.0,0.0,0.0,10.03426596780163,0.8499415893554687,0.01915361328125,9.9981861328125,20.0,101.3,50.0,0.0,0.0,3.7404580152671754,-0.4732824427480916,0.8244274809160306
2.24,0.0,0.0,0.0,10.052956271062136,0.8714894042968749,0.05746083984375,10.014945544433592,20.0,101.3,50.0,0.0,0.0,3.9389312977099236,-0.549618320610687,0.8244274809160306
2.24,0.0,0.0,0.0,10.052956271062136,0.8714894042968749,0.05746083984375,10.014945544433592,20.0,101.3,50.0,0.0,0.0,3.9389312977099236,-0.549618320610687,0.8244274809160306
2.24,0.0,0.0,0.0,10.052956271062136,0.8714894042968749,0.05746083984375,10.014945544433592,20.0,101.3,50.0,0.0,0.0,3.9389312977099236,-0.549618320610687,0.8244274809160306
2.24,0.0,0.0,0.0,10.052956271062136,0.8714894042968749,0.05746083984375,10.014945544433592,20.0,101.3,50.0,0.0,0.0,3.9389312977099236,-0.549618320610687,0.8244274809160306
2.25,0.0,0.0,0.0,10.03579455028295,0.7805097412109374,0.023942016601562498,10.005368737792969,20.0,101.3,50.0,0.0,0.0,6.061068702290076,-0.10687022900763359,1.1297709923664123
2.25,0.0,0.0,0.0,10.03579455028295,0.7805097412109374,0.023942016601562498,10.005368737792969,20.0,101.3,50.0,0.0,0.0,6.061068702290076,-0.10687022900763359,1.1297709923664123
2.27,0.0,0.0,0.0,10.002995738949359,0.8738836059570312,0.040701428222656245,9.964667309570311,20.0,101.3,50.0,0.0,0.0,0.3816793893129771,-1.3129770992366412,0.5801526717557252
2.28,0.0,0.0,0.0,10.002995738949359,0.8738836059570312,0.040701428222656245,9.964667309570311,20.0,101.3,50.0,0.0,0.0,0.3816793893129771,-1.3129770992366412,0.5801526717557252
2.28,0.0,0.0,0.0,10.002995738949359,0.8738836059570312,0.040701428222656245,9.964667309570311,20.0,101.3,50.0,0.0,0.0,0.3816793893129771,-1.3129770992366412,0.5801526717557252
2.29,0.0,0.0,0.0,10.028442254287718,0.7781155395507812,0.02154781494140625,9.9981861328125,20.0,101.3,50.0,0.0,0.0,2.50381679389313,-0.732824427480916,0.8549618320610687
2.29,0.0,0.0,0.0,10.028442254287718,0.7781155395507812,0.02154781494140625,9.9981861328125,20.0,101.3,50.0,0.0,0.0,2.50381679389313,-0.732824427480916,0.8549618320610687
2.29,0.0,0.0,0.0,10.028442254287718,0.7781155395507812,0.02154781494140625,9.9981861328125,20.0,101.3,50.0,0.0,0.0,2.50381679389313,-0.732824427480916,0.8549618320610687
2.29,0.0,0.0,0.0,10.028442254287718,0.7781155395507812,0.02154781494140625,9.9981861328125,20.0,101.3,50.0,0.0,0.0,2.50381679389313,-0.732824427480916,0.8549618320610687
2.3,0.0,0.0,0.0,9.999241853501607,0.9552864624023437,0.12689268798828124,9.952696301269532,20.0,101.3,50.0,0.0,0.0,6.183206106870229,0.07633587786259542,0.7938931297709924
2.3,0.0,0.0,0.0,9.999241853501607,0.9552864624023437,0.12689268798828124,9.952696301269532,20.0,101.3,50.0,0.0,0.0,6.183206106870229,0.07633587786259542,0.7938931297709924
2.31,0.0,0.0,0.0,9.999241853501607,0.9552864624023437,0.12689268798828124,9.952696301269532,20.0,101.3,50.0,0.0,0.0,6.183206106870229,0.07633587786259542,0.7938931297709924
2.31,0.0,0.0,0.0,10.085967149045867,0.8116343627929687,-0.009576806640625,10.053252770996092,20.0,101.3,50.0,0.0,0.0,5.190839694656488,-0.24427480916030533,0.7633587786259542
2.31,0.0,0.0,0.0,10.085967149045867,0.8116343627929687,-0.009576806640625,10.053252770996092,20.0,101.3,50.0,0.0,0.0,5.190839694656488,-0.24427480916030533,0.7633587786259542
2.32,0.0,0.0,0.0,10.085967149045867,0.8116343627929687,-0.009576806640625,10.053252770996092,20.0,101.3,50.0,0.0,0.0,5.190839694656488,-0.24427480916030533,0.7633587786259542
2.32,0.0,0.0,0.0,10.085967149045867,0.8116343627929687,-0.009576806640625,10.053252770996092,20.0,101.3,50.0,0.0,0.0,5.190839694656488,-0.24427480916030533,0.7633587786259542
2.32,0.0,0.0,0.0,9.837883289419342,0.7206546997070312,-0.016759411621093748,9.811438403320311,20.0,101.3,50.0,0.0,0.0,5.480916030534351,-0.12213740458015267,0.916030534351145
2.32,0.0,0.0,0.0,9.837883289419342,0.7206546997070312,-0.016759411621093748,9.811438403320311,20.0,101.3,50.0,0.0,0.0,5.480916030534351,-0.12213740458015267,0.916030534351145
2.33,0.0,0.0,0.0,9.837883289419342,0.7206546997070312,-0.016759411621093748,9.811438403320311,20.0,101.3,50.0,0.0,0.0,5.480916030534351,-0.12213740458015267,0.916030534351145
2.33,0.0,0.0,0.0,10.01098542846705,0.8283937744140625,-0.016759411621093748,9.976638317871092,20.0,101.3,50.0,0.0,0.0,4.3816793893129775,-0.5801526717557252,0.916030534351145
2.34,0.0,0.0,0.0,10.01098542846705,0.8283937744140625,-0.016759411621093748,9.976638317871092,20.0,101.3,50.0,0.0,0.0,4.3816793893129775,-0.5801526717557252,0.916030534351145
2.34,0.0,0.0,0.0,10.01098542846705,0.8283937744140625,-0.016759411621093748,9.976638317871092,20.0,101.3,50.0,0.0,0.0,4.3816793893129775,-0.5801526717557252,0.916030534351145
2.34,0.0,0.0,0.0,10.01098542846705,0.8283937744140625,-0.016759411621093748,9.976638317871092,20.0,101.3,50.0,0.0,0.0,4.3816793893129775,-0.5801526717557252,0.916030534351145
2.34,0.0,0.0,0.0,9.84341414979685,0.7805097412109374,0.1388636962890625,9.811438403320311,20.0,101.3,50.0,0.0,0.0,5.480916030534351,-0.16793893129770993,1.0229007633587786
2.35,0.0,0.0,0.0,9.84341414979685,0.7805097412109374,0.1388636962890625,9.811438403320311,20.0,101.3,50.0,0.0,0.0,5.480916030534351,-0.16793893129770993,1.0229007633587786
2.35,0.0,0.0,0.0,9.84341414979685,0.7805097412109374,0.1388636962890625,9.811438403320311,20.0,101.3,50.0,0.0,0.0,5.480916030534351,-0.16793893129770993,1.0229007633587786
2.36,0.0,0.0,0.0,9.91836030674979,0.8283937744140625,-0.09337386474609374,9.883264453125,20.0,101.3,50.0,0.0,0.0,4.961832061068702,-0.366412213740458,1.083969465648855
2.36,0.0,0.0,0.0,9.91836030674979,0.8283937744140625,-0.09337386474609374,9.883264453125,20.0,101.3,50.0,0.0,0.0,4.961832061068702,-0.366412213740458,1.083969465648855
2.36,0.0,0.0,0.0,9.91836030674979,0.8283937744140625,-0.09337386474609374,9.883264453125,20.0,101.3,50.0,0.0,0.0,4.961832061068702,-0.366412213740458,1.083969465648855
2.37,0.0,0.0,0.0,9.91836030674979,0.8283937744140625,-0.09337386474609374,9.883264453125,20.0,101.3,50.0,0.0,0.0,4.961832061068702,-0.366412213740458,1.083969465648855
2.37,0.0,0.0,0.0,10.105056768703065,0.8116343627929687,-0.00718260498046875,10.072406384277343,20.0,101.3,50.0,0.0,0.0,6.67175572519084,0.0,1.0687022900763359
2.37,0.0,0.0,0.0,10.105056768703065,0.8116343627929687,-0.00718260498046875,10.072406384277343,20.0,101.3,50.0,0.0,0.0,6.67175572519084,0.0,1.0687022900763359
2.37,0.0,0.0,0.0,10.105056768703065,0.8116343627929687,-0.00718260498046875,10.072406384277343,20.0,101.3,50.0,0.0,0.0,6.67175572519084,0.0,1.0687022900763359
2.38,0.0,0.0,0.0,10.009188476185468,0.8882488159179687,0.06943184814453125,9.969455712890625,20.0,101.3,50.0,0.0,0.0,6.33587786259542,0.061068702290076333,0.8854961832061069
2.38,0.0,0.0,0.0,10.009188476185468,0.8882488159179687,0.06943184814453125,9.969455712890625,20.0,101.3,50.0,0.0,0.0,6.33587786259542,0.061068702290076333,0.8854961832061069
2.39,0.0,0.0,0.0,10.009188476185468,0.8882488159179687,0.06943184814453125,9.969455712890625,20.0,101.3,50.0,0.0,0.0,6.33587786259542,0.061068702290076333,0.8854961832061069
2.39,0.0,0.0,0.0,10.009188476185468,0.8882488159179687,0.06943184814453125,9.969455712890625,20.0,101.3,50.0,0.0,0.0,6.33587786259542,0.061068702290076333,0.8854961832061069
2.39,0.0,0.0,0.0,10.019375812264057,0.842758984375,0.031124621582031248,9.983820922851562,20.0,101.3,50.0,0.0,0.0,6.290076335877862,0.04580152671755725,0.8244274809160306
2.4,0.0,0.0,0.0,10.019375812264057,0.842758984375,0.031124621582031248,9.983820922851562,20.0,101.3,50.0,0.0,0.0,6.290076335877862,0.04580152671755725,0.8244274809160306
2.4,0.0,0.0,0.0,10.019375812264057,0.842758984375,0.031124621582031248,9.983820922851562,20.0,101.3,50.0,0.0,0.0,6.290076335877862,0.04580152671755725,0.8244274809160306
2.4,0.0,0.0,0.0,10.019375812264057,0.842758984375,0.031124621582031248,9.983820922851562,20.0,101.3,50.0,0.0,0.0,6.290076335877862,0.04580152671755725,0.8244274809160306
2.4,0.0,0.0,0.0,10.019375812264057,0.842758984375,0.031124621582031248,9.983820922851562,20.0,101.3,50.0,0.0,0.0,6.290076335877862,0.04580152671755725,0.8244274809160306
2.4,0.0,0.0,0.0,9.940578537472534,0.8403647827148437,-0.05985504150390625,9.904812268066406,20.0,101.3,50.0,0.0,0.0,7.877862595419847,0.33587786259541985,1.099236641221374
2.41,0.0,0.0,0.0,9.940578537472534,0.8403647827148437,-0.05985504150390625,9.904812268066406,20.0,101.3,50.0,0.0,0.0,7.877862595419847,0.33587786259541985,1.099236641221374
2.44,0.0,0.0,0.0,10.125391607744607,0.9074024291992187,0.07422025146484375,10.084377392578125,20.0,101.3,50.0,0.0,0.0,-0.16793893129770993,-1.251908396946565,0.48854961832061067
2.49,0.0,0.0,0.0,10.0630505959671,0.7924807495117187,0.0430956298828125,10.031704956054687,20.0,101.3,50.0,0.0,0.0,-0.3511450381679389,-1.282442748091603,0.4732824427480916
2.49,0.0,0.0,0.0,10.0630505959671,0.7924807495117187,0.0430956298828125,10.031704956054687,20.0,101.3,50.0,0.0,0.0,-0.3511450381679389,-1.282442748091603,0.4732824427480916
2.49,0.0,0.0,0.0,10.0630505959671,0.7924807495117187,0.0430956298828125,10.031704956054687,20.0,101.3,50.0,0.0,0.0,-0.3511450381679389,-1.282442748091603,0.4732824427480916
2.49,0.0,0.0,0.0,10.0630505959671,0.7924807495117187,0.0430956298828125,10.031704956054687,20.0,101.3,50.0,0.0,0.0,-0.3511450381679389,-1.282442748091603,0.4732824427480916
2.5,0.0,0.0,0.0,10.08661502939695,0.8738836059570312,0.06703764648437499,10.04846436767578,20.0,101.3,50.0,0.0,0.0,2.7786259541984735,-0.6106870229007634,0.7633587786259542
2.5,0.0,0.0,0.0,10.08661502939695,0.8738836059570312,0.06703764648437499,10.04846436767578,20.0,101.3,50.0,0.0,0.0,2.7786259541984735,-0.6106870229007634,0.7633587786259542
2.51,0.0,0.0,0.0,10.08661502939695,0.8738836059570312,0.06703764648437499,10.04846436767578,20.0,101.3,50.0,0.0,0.0,2.7786259541984735,-0.6106870229007634,0.7633587786259542
2.51,0.0,0.0,0.0,10.08661502939695,0.8738836059570312,0.06703764648437499,10.04846436767578,20.0,101.3,50.0,0.0,0.0,2.7786259541984735,-0.6106870229007634,0.7633587786259542
2.51,0.0,0.0,0.0,10.100418347906357,0.7829039428710937,-0.01915361328125,10.070012182617187,20.0,101.3,50.0,0.0,0.0,3.435114503816794,-0.48854961832061067,0.732824427480916
2.51,0.0,0.0,0.0,10.100418347906357,0.7829039428710937,-0.01915361328125,10.070012182617187,20.0,101.3,50.0,0.0,0.0,3.435114503816794,-0.48854961832061067,0.732824427480916
2.52,0.0,0.0,0.0,10.100418347906357,0.7829039428710937,-0.01915361328125,10.070012182617187,20.0,101.3,50.0,0.0,0.0,3.435114503816794,-0.48854961832061067,0.732824427480916
2.52,0.0,0.0,0.0,9.975868087196838,0.8906430175781249,0.0430956298828125,9.935936889648437,20.0,101.3,50.0,0.0,0.0,3.5114503816793894,-0.6259541984732825,0.7022900763358778
2.53,0.0,0.0,0.0,9.975868087196838,0.8906430175781249,0.0430956298828125,9.935936889648437,20.0,101.3,50.0,0.0,0.0,3.5114503816793894,-0.6259541984732825,0.7022900763358778
2.53,0.0,0.0,0.0,9.975868087196838,0.8906430175781249,0.0430956298828125,9.935936889648437,20.0,101.3,50.0,0.0,0.0,3.5114503816793894,-0.6259541984732825,0.7022900763358778
2.53,0.0,0.0,0.0,9.975868087196838,0.8906430175781249,0.0430956298828125,9.935936889648437,20.0,101.3,50.0,0.0,0.0,3.5114503816793894,-0.6259541984732825,0.7022900763358778
2.57,0.0,0.0,0.0,10.071746776341556,0.8116343627929687,0.04548983154296875,10.038887561035155,20.0,101.3,50.0,0.0,0.0,-0.7175572519083969,-1.3435114503816794,0.5190839694656488
2.59,0.0,0.0,0.0,10.060954144279515,0.8259995727539062,0.0383072265625,10.026916552734374,20.0,101.3,50.0,0.0,0.0,-0.6259541984732825,-1.3282442748091603,0.48854961832061067
2.59,0.0,0.0,0.0,10.060954144279515,0.8259995727539062,0.0383072265625,10.026916552734374,20.0,101.3,50.0,0.0,0.0,-0.6259541984732825,-1.3282442748091603,0.48854961832061067
2.6,0.0,0.0,0.0,0.8740774983829767,0.8188169677734375,0.3058592620849609,-0.0005985504150390625,20.0,101.3,50.0,0.0,0.0,-0.015267175572519083,-0.015267175572519083,-0.015267175572519083
2.6,0.0,0.0,0.0,0.8740774983829767,0.8188169677734375,0.3058592620849609,-0.0005985504150390625,20.0,101.3,50.0,0.0,0.0,-0.015267175572519083,-0.015267175572519083,-0.015267175572519083
2.6,0.0,0.0,0.0,10.115588148385706,0.8188169677734375,0.0909796630859375,10.081983190917969,20.0,101.3,50.0,0.0,0.0,0.6564885496183206,-1.1297709923664123,0.5801526717557252
2.61,0.0,0.0,0.0,10.115588148385706,0.8188169677734375,0.0909796630859375,10.081983190917969,20.0,101.3,50.0,0.0,0.0,0.6564885496183206,-1.1297709923664123,0.5801526717557252
2.61,0.0,0.0,0.0,9.902504606924662,0.8978256225585937,-0.00718260498046875,9.861716638183593,20.0,101.3,50.0,0.0,0.0,3.572519083969466,-0.4122137404580153,0.8091603053435115
2.61,0.0,0.0,0.0,9.902504606924662,0.8978256225585937,-0.00718260498046875,9.861716638183593,20.0,101.3,50.0,0.0,0.0,3.572519083969466,-0.4122137404580153,0.8091603053435115
2.61,0.0,0.0,0.0,9.902504606924662,0.8978256225585937,-0.00718260498046875,9.861716638183593,20.0,101.3,50.0,0.0,0.0,3.572519083969466,-0.4122137404580153,0.8091603053435115
2.63,0.0,0.0,0.0,9.965368230311054,0.7948749511718749,0.0383072265625,9.93354268798828,20.0,101.3,50.0,0.0,0.0,0.0916030534351145,-1.1755725190839694,0.5801526717557252
2.63,0.0,0.0,0.0,9.965368230311054,0.7948749511718749,0.0383072265625,9.93354268798828,20.0,101.3,50.0,0.0,0.0,0.0916030534351145,-1.1755725190839694,0.5801526717557252
2.64,0.0,0.0,0.0,9.965368230311054,0.7948749511718749,0.0383072265625,9.93354268798828,20.0,101.3,50.0,0.0,0.0,0.0916030534351145,-1.1755725190839694,0.5801526717557252
2.64,0.0,0.0,0.0,9.965368230311054,0.7948749511718749,0.0383072265625,9.93354268798828,20.0,101.3,50.0,0.0,0.0,0.0916030534351145,-1.1755725190839694,0.5801526717557252
2.64,0.0,0.0,0.0,9.965368230311054,0.7948749511718749,0.0383072265625,9.93354268798828,20.0,101.3,50.0,0.0,0.0,0.0916030534351145,-1.1755725190839694,0.5801526717557252
2.65,0.0,0.0,0.0,9.938592944653399,0.9504980590820312,0.062249243164062495,9.892841259765625,20.0,101.3,50.0,0.0,0.0,4.961832061068702,-0.366412213740458,0.9770992366412213
2.65,0.0,0.0,0.0,9.938592944653399,0.9504980590820312,0.062249243164062495,9.892841259765625,20.0,101.3,50.0,0.0,0.0,4.961832061068702,-0.366412213740458,0.9770992366412213
2.66,0.0,0.0,0.0,10.09592882492645,0.8164227661132812,-0.02633621826171875,10.062829577636718,20.0,101.3,50.0,0.0,0.0,4.732824427480916,-0.4580152671755725,0.3969465648854962
2.66,0.0,0.0,0.0,10.09592882492645,0.8164227661132812,-0.02633621826171875,10.062829577636718,20.0,101.3,50.0,0.0,0.0,4.732824427480916,-0.4580152671755725,0.3969465648854962
2.66,0.0,0.0,0.0,10.09592882492645,0.8164227661132812,-0.02633621826171875,10.062829577636718,20.0,101.3,50.0,0.0,0.0,4.732824427480916,-0.4580152671755725,0.3969465648854962
2.66,0.0,0.0,0.0,10.09592882492645,0.8164227661132812,-0.02633621826171875,10.062829577636718,20.0,101.3,50.0,0.0,0.0,4.732824427480916,-0.4580152671755725,0.3969465648854962
2.67,0.0,0.0,0.0,9.962923566121729,0.8499415893554687,0.06943184814453125,9.926360083007811,20.0,101.3,50.0,0.0,0.0,5.297709923664122,-0.21374045801526717,0.5648854961832062
2.67,0.0,0.0,0.0,9.962923566121729,0.8499415893554687,0.06943184814453125,9.926360083007811,20.0,101.3,50.0,0.0,0.0,5.297709923664122,-0.21374045801526717,0.5648854961832062
2.68,0.0,0.0,0.0,9.962923566121729,0.8499415893554687,0.06943184814453125,9.926360083007811,20.0,101.3,50.0,0.0,0.0,5.297709923664122,-0.21374045801526717,0.5648854961832062
2.68,0.0,0.0,0.0,10.025384329539637,0.737414111328125,0.028730419921875,9.9981861328125,20.0,101.3,50.0,0.0,0.0,3.648854961832061,-0.5190839694656488,0.2900763358778626
2.68,0.0,0.0,0.0,10.025384329539637,0.737414111328125,0.028730419921875,9.9981861328125,20.0,101.3,50.0,0.0,0.0,3.648854961832061,-0.5190839694656488,0.2900763358778626
2.69,0.0,0.0,0.0,10.025384329539637,0.737414111328125,0.028730419921875,9.9981861328125,20.0,101.3,50.0,0.0,0.0,3.648854961832061,-0.5190839694656488,0.2900763358778626
2.69,0.0,0.0,0.0,10.025384329539637,0.737414111328125,0.028730419921875,9.9981861328125,20.0,101.3,50.0,0.0,0.0,3.648854961832061,-0.5190839694656488,0.2900763358778626
2.69,0.0,0.0,0.0,10.025384329539637,0.737414111328125,0.028730419921875,9.9981861328125,20.0,101.3,50.0,0.0,0.0,3.648854961832061,-0.5190839694656488,0.2900763358778626
2.69,0.0,0.0,0.0,9.918014693546727,0.7685387329101562,0.0526724365234375,9.888052856445311,20.0,101.3,50.0,0.0,0.0,6.412213740458015,-0.0916030534351145,0.3969465648854962
2.7,0.0,0.0,0.0,9.918014693546727,0.7685387329101562,0.0526724365234375,9.888052856445311,20.0,101.3,50.0,0.0,0.0,6.412213740458015,-0.0916030534351145,0.3969465648854962
2.7,0.0,0.0,0.0,10.061666018362331,0.833182177734375,-0.062249243164062495,10.026916552734374,20.0,101.3,50.0,0.0,0.0,4.442748091603053,-0.366412213740458,0.6106870229007634
2.71,0.0,0.0,0.0,10.061666018362331,0.833182177734375,-0.062249243164062495,10.026916552734374,20.0,101.3,50.0,0.0,0.0,4.442748091603053,-0.366412213740458,0.6106870229007634
2.71,0.0,0.0,0.0,10.061666018362331,0.833182177734375,-0.062249243164062495,10.026916552734374,20.0,101.3,50.0,0.0,0.0,4.442748091603053,-0.366412213740458,0.6106870229007634
2.71,0.0,0.0,0.0,10.061666018362331,0.833182177734375,-0.062249243164062495,10.026916552734374,20.0,101.3,50.0,0.0,0.0,4.442748091603053,-0.366412213740458,0.6106870229007634
2.72,0.0,0.0,0.0,10.061666018362331,0.833182177734375,-0.062249243164062495,10.026916552734374,20.0,101.3,50.0,0.0,0.0,4.442748091603053,-0.366412213740458,0.6106870229007634
2.72,0.0,0.0,0.0,10.048859400332521,0.8810662109374999,0.00718260498046875,10.01015714111328,20.0,101.3,50.0,0.0,0.0,6.198473282442748,-0.0916030534351145,0.9618320610687023
2.72,0.0,0.0,0.0,10.048859400332521,0.8810662109374999,0.00718260498046875,10.01015714111328,20.0,101.3,50.0,0.0,0.0,6.198473282442748,-0.0916030534351145,0.9618320610687023
2.72,0.0,0.0,0.0,10.048859400332521,0.8810662109374999,0.00718260498046875,10.01015714111328,20.0,101.3,50.0,0.0,0.0,6.198473282442748,-0.0916030534351145,0.9618320610687023
2.73,0.0,0.0,0.0,1.0320567907244158,0.8307879760742187,0.6123170745849609,-0.0005985504150390625,20.0,101.3,50.0,0.0,0.0,-0.015267175572519083,-0.015267175572519083,-0.015267175572519083
2.73,0.0,0.0,0.0,10.020723902666578,0.8307879760742187,0.0143652099609375,9.986215124511718,20.0,101.3,50.0,0.0,0.0,6.152671755725191,-0.12213740458015267,1.2061068702290076
2.74,0.0,0.0,0.0,10.100844547339138,0.8164227661132812,0.05985504150390625,10.067617980957031,20.0,101.3,50.0,0.0,0.0,3.145038167938931,-0.6564885496183206,0.7786259541984732
2.74,0.0,0.0,0.0,10.100844547339138,0.8164227661132812,0.05985504150390625,10.067617980957031,20.0,101.3,50.0,0.0,0.0,3.145038167938931,-0.6564885496183206,0.7786259541984732
2.75,0.0,0.0,0.0,10.100844547339138,0.8164227661132812,0.05985504150390625,10.067617980957031,20.0,101.3,50.0,0.0,0.0,3.145038167938931,-0.6564885496183206,0.7786259541984732
2.75,0.0,0.0,0.0,10.100844547339138,0.8164227661132812,0.05985504150390625,10.067617980957031,20.0,101.3,50.0,0.0,0.0,3.145038167938931,-0.6564885496183206,0.7786259541984732
2.75,0.0,0.0,0.0,9.868813569637197,0.8116343627929687,-0.0047884033203125,9.835380419921874,20.0,101.3,50.0,0.0,0.0,3.648854961832061,-0.6412213740458015,0.8549618320610687
2.76,0.0,0.0,0.0,9.868813569637197,0.8116343627929687,-0.0047884033203125,9.835380419921874,20.0,101.3,50.0,0.0,0.0,3.648854961832061,-0.6412213740458015,0.8549618320610687
2.76,0.0,0.0,0.0,9.868813569637197,0.8116343627929687,-0.0047884033203125,9.835380419921874,20.0,101.3,50.0,0.0,0.0,3.648854961832061,-0.6412213740458015,0.8549618320610687
2.76,0.0,0.0,0.0,9.868813569637197,0.8116343627929687,-0.0047884033203125,9.835380419921874,20.0,101.3,50.0,0.0,0.0,3.648854961832061,-0.6412213740458015,0.8549618320610687
2.76,0.0,0.0,0.0,9.868813569637197,0.8116343627929687,-0.0047884033203125,9.835380419921874,20.0,101.3,50.0,0.0,0.0,3.648854961832061,-0.6412213740458015,0.8549618320610687
2.77,0.0,0.0,0.0,9.929485450512464,0.7924807495117187,0.05985504150390625,9.897629663085937,20.0,101.3,50.0,0.0,0.0,4.290076335877862,-0.42748091603053434,0.8244274809160306
2.77,0.0,0.0,0.0,9.929485450512464,0.7924807495117187,0.05985504150390625,9.897629663085937,20.0,101.3,50.0,0.0,0.0,4.290076335877862,-0.42748091603053434,0.8244274809160306
2.77,0.0,0.0,0.0,9.929485450512464,0.7924807495117187,0.05985504150390625,9.897629663085937,20.0,101.3,50.0,0.0,0.0,4.290076335877862,-0.42748091603053434,0.8244274809160306
2.77,0.0,0.0,0.0,9.929485450512464,0.7924807495117187,0.05985504150390625,9.897629663085937,20.0,101.3,50.0,0.0,0.0,4.290076335877862,-0.42748091603053434,0.8244274809160306
2.78,0.0,0.0,0.0,9.991971660964449,0.737414111328125,-0.033518823242187495,9.964667309570311,20.0,101.3,50.0,0.0,0.0,5.984732824427481,-0.030534351145038167,0.8244274809160306
2.78,0.0,0.0,0.0,9.991971660964449,0.737414111328125,-0.033518823242187495,9.964667309570311,20.0,101.3,50.0,0.0,0.0,5.984732824427481,-0.030534351145038167,0.8244274809160306
2.79,0.0,0.0,0.0,9.991971660964449,0.737414111328125,-0.033518823242187495,9.964667309570311,20.0,101.3,50.0,0.0,0.0,5.984732824427481,-0.030534351145038167,0.8244274809160306
2.79,0.0,0.0,0.0,10.146265352301793,0.8188169677734375,0.03591302490234375,10.1131078125,20.0,101.3,50.0,0.0,0.0,3.984732824427481,-0.32061068702290074,0.5343511450381679
2.79,0.0,0.0,0.0,10.146265352301793,0.8188169677734375,0.03591302490234375,10.1131078125,20.0,101.3,50.0,0.0,0.0,3.984732824427481,-0.32061068702290074,0.5343511450381679
2.79,0.0,0.0,0.0,10.146265352301793,0.8188169677734375,0.03591302490234375,10.1131078125,20.0,101.3,50.0,0.0,0.0,3.984732824427481,-0.32061068702290074,0.5343511450381679
2.8,0.0,0.0,0.0,10.146265352301793,0.8188169677734375,0.03591302490234375,10.1131078125,20.0,101.3,50.0,0.0,0.0,3.984732824427481,-0.32061068702290074,0.5343511450381679
2.8,0.0,0.0,0.0,10.101261649212308,0.852335791015625,0.016759411621093748,10.065223779296874,20.0,101.3,50.0,0.0,0.0,6.458015267175573,0.04580152671755725,0.8091603053435115
2.8,0.0,0.0,0.0,10.101261649212308,0.852335791015625,0.016759411621093748,10.065223779296874,20.0,101.3,50.0,0.0,0.0,6.458015267175573,0.04580152671755725,0.8091603053435115
2.81,0.0,0.0,0.0,10.101261649212308,0.852335791015625,0.016759411621093748,10.065223779296874,20.0,101.3,50.0,0.0,0.0,6.458015267175573,0.04580152671755725,0.8091603053435115
2.81,0.0,0.0,0.0,10.101261649212308,0.852335791015625,0.016759411621093748,10.065223779296874,20.0,101.3,50.0,0.0,0.0,6.458015267175573,0.04580152671755725,0.8091603053435115
2.81,0.0,0.0,0.0,10.101261649212308,0.852335791015625,0.016759411621093748,10.065223779296874,20.0,101.3,50.0,0.0,0.0,6.458015267175573,0.04580152671755725,0.8091603053435115
2.81,0.0,0.0,0.0,10.011346440673401,0.7733271362304687,-0.011971008300781249,9.981426721191406,20.0,101.3,50.0,0.0,0.0,6.580152671755725,0.183206106870229,1.1908396946564885
2.82,0.0,0.0,0.0,10.011346440673401,0.7733271362304687,-0.011971008300781249,9.981426721191406,20.0,101.3,50.0,0.0,0.0,6.580152671755725,0.183206106870229,1.1908396946564885
2.82,0.0,0.0,0.0,9.98201965469895,0.7924807495117187,-0.06464344482421874,9.950302099609374,20.0,101.3,50.0,0.0,0.0,3.5419847328244276,-0.5038167938931297,0.9465648854961832
2.83,0.0,0.0,0.0,9.98201965469895,0.7924807495117187,-0.06464344482421874,9.950302099609374,20.0,101.3,50.0,0.0,0.0,3.5419847328244276,-0.5038167938931297,0.9465648854961832
2.83,0.0,0.0,0.0,9.98201965469895,0.7924807495117187,-0.06464344482421874,9.950302099609374,20.0,101.3,50.0,0.0,0.0,3.5419847328244276,-0.5038167938931297,0.9465648854961832
2.83,0.0,0.0,0.0,9.98201965469895,0.7924807495117187,-0.06464344482421874,9.950302099609374,20.0,101.3,50.0,0.0,0.0,3.5419847328244276,-0.5038167938931297,0.9465648854961832
2.84,0.0,0.0,0.0,9.98201965469895,0.7924807495117187,-0.06464344482421874,9.950302099609374,20.0,101.3,50.0,0.0,0.0,3.5419847328244276,-0.5038167938931297,0.9465648854961832
2.84,0.0,0.0,0.0,9.907237134900948,0.7541735229492187,-0.016759411621093748,9.878476049804688,20.0,101.3,50.0,0.0,0.0,4.916030534351145,-0.3816793893129771,0.9465648854961832
2.84,0.0,0.0,0.0,9.907237134900948,0.7541735229492187,-0.016759411621093748,9.878476049804688,20.0,101.3,50.0,0.0,0.0,4.916030534351145,-0.3816793893129771,0.9465648854961832
2.84,0.0,0.0,0.0,9.907237134900948,0.7541735229492187,-0.016759411621093748,9.878476049804688,20.0,101.3,50.0,0.0,0.0,4.916030534351145,-0.3816793893129771,0.9465648854961832
2.85,0.0,0.0,0.0,9.907237134900948,0.7541735229492187,-0.016759411621093748,9.878476049804688,20.0,101.3,50.0,0.0,0.0,4.916030534351145,-0.3816793893129771,0.9465648854961832
2.85,0.0,0.0,0.0,9.999700167263011,0.8643067993164062,0.009576806640625,9.962273107910155,20.0,101.3,50.0,0.0,0.0,4.595419847328245,-0.2900763358778626,0.5648854961832062
2.85,0.0,0.0,0.0,9.999700167263011,0.8643067993164062,0.009576806640625,9.962273107910155,20.0,101.3,50.0,0.0,0.0,4.595419847328245,-0.2900763358778626,0.5648854961832062
2.85,0.0,0.0,0.0,9.999700167263011,0.8643067993164062,0.009576806640625,9.962273107910155,20.0,101.3,50.0,0.0,0.0,4.595419847328245,-0.2900763358778626,0.5648854961832062
2.86,0.0,0.0,0.0,10.148304923828295,0.814028564453125,0.04548983154296875,10.115502014160155,20.0,101.3,50.0,0.0,0.0,5.648854961832061,-0.12213740458015267,1.0076335877862594
2.86,0.0,0.0,0.0,10.148304923828295,0.814028564453125,0.04548983154296875,10.115502014160155,20.0,101.3,50.0,0.0,0.0,5.648854961832061,-0.12213740458015267,1.0076335877862594
2.87,0.0,0.0,0.0,10.148304923828295,0.814028564453125,0.04548983154296875,10.115502014160155,20.0,101.3,50.0,0.0,0.0,5.648854961832061,-0.12213740458015267,1.0076335877862594
2.87,0.0,0.0,0.0,10.148304923828295,0.814028564453125,0.04548983154296875,10.115502014160155,20.0,101.3,50.0,0.0,0.0,5.648854961832061,-0.12213740458015267,1.0076335877862594
2.87,0.0,0.0,0.0,10.01694289816334,0.842758984375,0.0047884033203125,9.981426721191406,20.0,101.3,50.0,0.0,0.0,5.786259541984733,-0.07633587786259542,0.9465648854961832
2.88,0.0,0.0,0.0,10.01694289816334,0.842758984375,0.0047884033203125,9.981426721191406,20.0,101.3,50.0,0.0,0.0,5.786259541984733,-0.07633587786259542,0.9465648854961832
2.88,0.0,0.0,0.0,10.01694289816334,0.842758984375,0.0047884033203125,9.981426721191406,20.0,101.3,50.0,0.0,0.0,5.786259541984733,-0.07633587786259542,0.9465648854961832
2.88,0.0,0.0,0.0,10.01694289816334,0.842758984375,0.0047884033203125,9.981426721191406,20.0,101.3,50.0,0.0,0.0,5.786259541984733,-0.07633587786259542,0.9465648854961832
2.89,0.0,0.0,0.0,10.055787773530028,0.7900865478515624,0.05985504150390625,10.024522351074218,20.0,101.3,50.0,0.0,0.0,6.961832061068702,0.07633587786259542,0.9618320610687023
2.89,0.0,0.0,0.0,10.055787773530028,0.7900865478515624,0.05985504150390625,10.024522351074218,20.0,101.3,50.0,0.0,0.0,6.961832061068702,0.07633587786259542,0.9618320610687023
2.9,0.0,0.0,0.0,9.903609596295324,0.7685387329101562,0.033518823242187495,9.873687646484374,20.0,101.3,50.0,0.0,0.0,4.33587786259542,-0.48854961832061067,0.9007633587786259
2.9,0.0,0.0,0.0,9.903609596295324,0.7685387329101562,0.033518823242187495,9.873687646484374,20.0,101.3,50.0,0.0,0.0,4.33587786259542,-0.48854961832061067,0.9007633587786259
2.9,0.0,0.0,0.0,9.903609596295324,0.7685387329101562,0.033518823242187495,9.873687646484374,20.0,101.3,50.0,0.0,0.0,4.33587786259542,-0.48854961832061067,0.9007633587786259
2.9,0.0,0.0,0.0,9.903609596295324,0.7685387329101562,0.033518823242187495,9.873687646484374,20.0,101.3,50.0,0.0,0.0,4.33587786259542,-0.48854961832061067,0.9007633587786259
2.91,0.0,0.0,0.0,9.994716059524977,0.833182177734375,0.031124621582031248,9.95987890625,20.0,101.3,50.0,0.0,0.0,7.435114503816794,0.04580152671755725,1.1908396946564885
2.91,0.0,0.0,0.0,9.994716059524977,0.833182177734375,0.031124621582031248,9.95987890625,20.0,101.3,50.0,0.0,0.0,7.435114503816794,0.04580152671755725,1.1908396946564885
2.92,0.0,0.0,0.0,9.994716059524977,0.833182177734375,0.031124621582031248,9.95987890625,20.0,101.3,50.0,0.0,0.0,7.435114503816794,0.04580152671755725,1.1908396946564885
2.92,0.0,0.0,0.0,9.960040628654934,0.8403647827148437,0.105344873046875,9.923965881347655,20.0,101.3,50.0,0.0,0.0,4.854961832061068,-0.32061068702290074,0.9770992366412213
2.92,0.0,0.0,0.0,9.960040628654934,0.8403647827148437,0.105344873046875,9.923965881347655,20.0,101.3,50.0,0.0,0.0,4.854961832061068,-0.32061068702290074,0.9770992366412213
2.93,0.0,0.0,0.0,9.960040628654934,0.8403647827148437,0.105344873046875,9.923965881347655,20.0,101.3,50.0,0.0,0.0,4.854961832061068,-0.32061068702290074,0.9770992366412213
2.93,0.0,0.0,0.0,9.960040628654934,0.8403647827148437,0.105344873046875,9.923965881347655,20.0,101.3,50.0,0.0,0.0,4.854961832061068,-0.32061068702290074,0.9770992366412213
2.93,0.0,0.0,0.0,9.960040628654934,0.8403647827148437,0.105344873046875,9.923965881347655,20.0,101.3,50.0,0.0,0.0,4.854961832061068,-0.32061068702290074,0.9770992366412213
2.93,0.0,0.0,0.0,10.094706902250287,0.8595183959960937,0.011971008300781249,10.058041174316406,20.0,101.3,50.0,0.0,0.0,7.114503816793893,0.183206106870229,0.9465648854961832
2.94,0.0,0.0,0.0,21.55493292438566,0.8595183959960937,-15.229516760253905,-15.229516760253905,20.0,101.3,50.0,0.0,0.0,-388.4580152671756,-388.4580152671756,-388.4580152671756
2.94,0.0,0.0,0.0,10.094706902250287,0.8595183959960937,0.011971008300781249,10.058041174316406,20.0,101.3,50.0,0.0,0.0,7.114503816793893,0.183206106870229,0.9465648854961832
2.95,0.0,0.0,0.0,10.053148997013922,0.7876923461914062,0.047884033203124995,10.022128149414062,20.0,101.3,50.0,0.0,0.0,5.404580152671755,-0.1984732824427481,0.0
2.95,0.0,0.0,0.0,10.053148997013922,0.7876923461914062,0.047884033203124995,10.022128149414062,20.0,101.3,50.0,0.0,0.0,5.404580152671755,-0.1984732824427481,0.6870229007633588
2.96,0.0,0.0,0.0,10.053148997013922,0.7876923461914062,0.047884033203124995,10.022128149414062,20.0,101.3,50.0,0.0,0.0,5.404580152671755,-0.1984732824427481,0.6870229007633588
2.96,0.0,0.0,0.0,9.981992090532007,0.7565677246093749,0.10773907470703124,9.952696301269532,20.0,101.3,50.0,0.0,0.0,4.366412213740458,-0.48854961832061067,0.8091603053435115
2.96,0.0,0.0,0.0,9.981992090532007,0.7565677246093749,0.10773907470703124,9.952696301269532,20.0,101.3,50.0,0.0,0.0,4.366412213740458,-0.48854961832061067,0.8091603053435115
2.96,0.0,0.0,0.0,9.981992090532007,0.7565677246093749,0.10773907470703124,9.952696301269532,20.0,101.3,50.0,0.0,0.0,4.366412213740458,-0.48854961832061067,0.8091603053435115
2.97,0.0,0.0,0.0,9.981992090532007,0.7565677246093749,0.10773907470703124,9.952696301269532,20.0,101.3,50.0,0.0,0.0,4.366412213740458,-0.48854961832061067,0.8091603053435115
2.97,0.0,0.0,0.0,10.101714483174833,0.8283937744140625,0.0383072265625,10.067617980957031,20.0,101.3,50.0,0.0,0.0,5.541984732824427,-0.2900763358778626,0.9618320610687023
2.97,0.0,0.0,0.0,10.101714483174833,0.8283937744140625,0.0383072265625,10.067617980957031,20.0,101.3,50.0,0.0,0.0,5.541984732824427,-0.2900763358778626,0.9618320610687023
2.97,0.0,0.0,0.0,10.101714483174833,0.8283937744140625,0.0383072265625,10.067617980957031,20.0,101.3,50.0,0.0,0.0,5.541984732824427,-0.2900763358778626,0.9618320610687023
2.98,0.0,0.0,0.0,9.96857567269377,0.8307879760742187,0.08379705810546874,9.93354268798828,20.0,101.3,50.0,0.0,0.0,5.801526717557252,-0.21374045801526717,0.6717557251908397
2.98,0.0,0.0,0.0,9.96857567269377,0.8307879760742187,0.08379705810546874,9.93354268798828,20.0,101.3,50.0,0.0,0.0,5.801526717557252,-0.21374045801526717,0.6717557251908397
2.99,0.0,0.0,0.0,9.96857567269377,0.8307879760742187,0.08379705810546874,9.93354268798828,20.0,101.3,50.0,0.0,0.0,5.801526717557252,-0.21374045801526717,0.6717557251908397
2.99,0.0,0.0,0.0,9.96857567269377,0.8307879760742187,0.08379705810546874,9.93354268798828,20.0,101.3,50.0,0.0,0.0,5.801526717557252,-0.21374045801526717,0.6717557251908397
2.99,0.0,0.0,0.0,9.96857567269377,0.8307879760742187,0.08379705810546874,9.93354268798828,20.0,101.3,50.0,0.0,0.0,5.801526717557252,-0.21374045801526717,0.6717557251908397
2.99,0.0,0.0,0.0,10.000375131458975,0.8714894042968749,-0.033518823242187495,9.962273107910155,20.0,101.3,50.0,0.0,0.0,4.977099236641221,-0.3511450381679389,0.6564885496183206
3.0,0.0,0.0,0.0,10.000375131458975,0.8714894042968749,-0.033518823242187495,9.962273107910155,20.0,101.3,50.0,0.0,0.0,4.977099236641221,-0.3511450381679389,0.6564885496183206
3.0,0.0,0.0,0.0,10.006700384462123,0.833182177734375,0.04548983154296875,9.97184991455078,20.0,101.3,50.0,0.0,0.0,4.198473282442748,-0.5648854961832062,0.6564885496183206
3.01,0.0,0.0,0.0,10.006700384462123,0.833182177734375,0.04548983154296875,9.97184991455078,20.0,101.3,50.0,0.0,0.0,4.198473282442748,-0.5648854961832062,0.6564885496183206
3.01,0.0,0.0,0.0,10.006700384462123,0.833182177734375,0.04548983154296875,9.97184991455078,20.0,101.3,50.0,0.0,0.0,4.198473282442748,-0.5648854961832062,0.6564885496183206
3.01,0.0,0.0,0.0,10.006700384462123,0.833182177734375,0.04548983154296875,9.97184991455078,20.0,101.3,50.0,0.0,0.0,4.198473282442748,-0.5648854961832062,0.6564885496183206
3.02,0.0,0.0,0.0,10.006700384462123,0.833182177734375,0.04548983154296875,9.97184991455078,20.0,101.3,50.0,0.0,0.0,4.198473282442748,-0.5648854961832062,0.6564885496183206
3.02,0.0,0.0,0.0,10.01400252914552,0.8068459594726562,-0.01915361328125,9.981426721191406,20.0,101.3,50.0,0.0,0.0,6.6106870229007635,0.04580152671755725,0.8854961832061069
3.02,0.0,0.0,0.0,10.01400252914552,0.8068459594726562,-0.01915361328125,9.981426721191406,20.0,101.3,50.0,0.0,0.0,6.6106870229007635,0.04580152671755725,0.8854961832061069
3.02,0.0,0.0,0.0,10.01400252914552,0.8068459594726562,-0.01915361328125,9.981426721191406,20.0,101.3,50.0,0.0,0.0,6.6106870229007635,0.04580152671755725,0.8854961832061069
3.03,0.0,0.0,0.0,10.171577176698122,0.8068459594726562,0.040701428222656245,10.139444030761718,20.0,101.3,50.0,0.0,0.0,7.32824427480916,-0.015267175572519083,0.9770992366412213
3.03,0.0,0.0,0.0,10.171577176698122,0.8068459594726562,0.040701428222656245,10.139444030761718,20.0,101.3,50.0,0.0,0.0,7.32824427480916,-0.015267175572519083,0.9770992366412213
3.04,0.0,0.0,0.0,10.171577176698122,0.8068459594726562,0.040701428222656245,10.139444030761718,20.0,101.3,50.0,0.0,0.0,7.32824427480916,-0.015267175572519083,0.9770992366412213
3.04,0.0,0.0,0.0,10.171577176698122,0.8068459594726562,0.040701428222656245,10.139444030761718,20.0,101.3,50.0,0.0,0.0,7.32824427480916,-0.015267175572519083,0.9770992366412213
3.04,0.0,0.0,0.0,9.987889375493689,0.8355763793945312,-0.05985504150390625,9.952696301269532,20.0,101.3,50.0,0.0,0.0,4.656488549618321,-0.3816793893129771,0.8854961832061069
3.05,0.0,0.0,0.0,9.987889375493689,0.8355763793945312,-0.05985504150390625,9.952696301269532,20.0,101.3,50.0,0.0,0.0,4.656488549618321,-0.3816793893129771,0.8854961832061069
3.05,0.0,0.0,0.0,9.987889375493689,0.8355763793945312,-0.05985504150390625,9.952696301269532,20.0,101.3,50.0,0.0,0.0,4.656488549618321,-0.3816793893129771,0.8854961832061069
3.05,0.0,0.0,0.0,9.987889375493689,0.8355763793945312,-0.05985504150390625,9.952696301269532,20.0,101.3,50.0,0.0,0.0,4.656488549618321,-0.3816793893129771,0.8854961832061069
3.05,0.0,0.0,0.0,9.98683733351418,0.7302315063476562,-0.06703764648437499,9.95987890625,20.0,101.3,50.0,0.0,0.0,5.862595419847328,-0.0916030534351145,0.7938931297709924
3.06,0.0,0.0,0.0,9.98683733351418,0.7302315063476562,-0.06703764648437499,9.95987890625,20.0,101.3,50.0,0.0,0.0,5.862595419847328,-0.0916030534351145,0.7938931297709924
3.06,0.0,0.0,0.0,9.98683733351418,0.7302315063476562,-0.06703764648437499,9.95987890625,20.0,101.3,50.0,0.0,0.0,5.862595419847328,-0.0916030534351145,0.7938931297709924
3.07,0.0,0.0,0.0,9.904875059958288,0.8690952026367187,-0.05746083984375,9.866505041503906,20.0,101.3,50.0,0.0,0.0,3.7251908396946565,-0.5343511450381679,0.7175572519083969
3.07,0.0,0.0,0.0,9.904875059958288,0.8690952026367187,-0.05746083984375,9.866505041503906,20.0,101.3,50.0,0.0,0.0,3.7251908396946565,-0.5343511450381679,0.7175572519083969
3.07,0.0,0.0,0.0,9.904875059958288,0.8690952026367187,-0.05746083984375,9.866505041503906,20.0,101.3,50.0,0.0,0.0,3.7251908396946565,-0.5343511450381679,0.7175572519083969
3.07,0.0,0.0,0.0,9.904875059958288,0.8690952026367187,-0.05746083984375,9.866505041503906,20.0,101.3,50.0,0.0,0.0,3.7251908396946565,-0.5343511450381679,0.7175572519083969
3.08,0.0,0.0,0.0,9.916019668891165,0.833182177734375,0.040701428222656245,9.880870251464843,20.0,101.3,50.0,0.0,0.0,4.33587786259542,-0.5343511450381679,0.8854961832061069
3.08,0.0,0.0,0.0,9.916019668891165,0.833182177734375,0.040701428222656245,9.880870251464843,20.0,101.3,50.0,0.0,0.0,4.33587786259542,-0.5343511450381679,0.8854961832061069
3.09,0.0,0.0,0.0,9.916019668891165,0.833182177734375,0.040701428222656245,9.880870251464843,20.0,101.3,50.0,0.0,0.0,4.33587786259542,-0.5343511450381679,0.8854961832061069
3.09,0.0,0.0,0.0,10.15195767262449,0.8595183959960937,-0.009576806640625,10.115502014160155,20.0,101.3,50.0,0.0,0.0,3.648854961832061,-0.6106870229007634,0.732824427480916
3.09,0.0,0.0,0.0,10.15195767262449,0.8595183959960937,-0.009576806640625,10.115502014160155,20.0,101.3,50.0,0.0,0.0,3.648854961832061,-0.6106870229007634,0.732824427480916
3.1,0.0,0.0,0.0,9.984624412155803,0.8547299926757812,0.03591302490234375,9.947907897949218,20.0,101.3,50.0,0.0,0.0,4.106870229007634,-0.5190839694656488,0.732824427480916
3.1,0.0,0.0,0.0,9.984624412155803,0.8547299926757812,0.03591302490234375,9.947907897949218,20.0,101.3,50.0,0.0,0.0,4.106870229007634,-0.5190839694656488,0.732824427480916
3.11,0.0,0.0,0.0,9.984624412155803,0.8547299926757812,0.03591302490234375,9.947907897949218,20.0,101.3,50.0,0.0,0.0,4.106870229007634,-0.5190839694656488,0.732824427480916
3.11,0.0,0.0,0.0,9.984624412155803,0.8547299926757812,0.03591302490234375,9.947907897949218,20.0,101.3,50.0,0.0,0.0,4.106870229007634,-0.5190839694656488,0.732824427480916
3.11,0.0,0.0,0.0,9.984624412155803,0.8547299926757812,0.03591302490234375,9.947907897949218,20.0,101.3,50.0,0.0,0.0,4.106870229007634,-0.5190839694656488,0.732824427480916
3.11,0.0,0.0,0.0,10.05186427762531,0.8595183959960937,0.04548983154296875,10.014945544433592,20.0,101.3,50.0,0.0,0.0,4.076335877862595,-0.366412213740458,0.9007633587786259
3.12,0.0,0.0,0.0,10.05186427762531,0.8595183959960937,0.04548983154296875,10.014945544433592,20.0,101.3,50.0,0.0,0.0,4.076335877862595,-0.366412213740458,0.9007633587786259
3.12,0.0,0.0,0.0,9.91789332150438,0.7685387329101562,0.01915361328125,9.888052856445311,20.0,101.3,50.0,0.0,0.0,4.106870229007634,-0.4732824427480916,1.1450381679389312
3.13,0.0,0.0,0.0,9.91789332150438,0.7685387329101562,0.01915361328125,9.888052856445311,20.0,101.3,50.0,0.0,0.0,4.106870229007634,-0.4732824427480916,1.1450381679389312
3.13,0.0,0.0,0.0,9.91789332150438,0.7685387329101562,0.01915361328125,9.888052856445311,20.0,101.3,50.0,0.0,0.0,4.106870229007634,-0.4732824427480916,1.1450381679389312
3.13,0.0,0.0,0.0,9.91789332150438,0.7685387329101562,0.01915361328125,9.888052856445311,20.0,101.3,50.0,0.0,0.0,4.106870229007634,-0.4732824427480916,1.1450381679389312
3.14,0.0,0.0,0.0,9.91789332150438,0.7685387329101562,0.01915361328125,9.888052856445311,20.0,101.3,50.0,0.0,0.0,4.106870229007634,-0.4732824427480916,1.1450381679389312
3.14,0.0,0.0,0.0,10.110236233290761,0.7852981445312499,-0.04548983154296875,10.079588989257813,20.0,101.3,50.0,0.0,0.0,6.641221374045801,0.0916030534351145,0.9007633587786259
3.14,0.0,0.0,0.0,10.110236233290761,0.7852981445312499,-0.04548983154296875,10.079588989257813,20.0,101.3,50.0,0.0,0.0,6.641221374045801,0.0916030534351145,0.9007633587786259
3.14,0.0,0.0,0.0,10.110236233290761,0.7852981445312499,-0.04548983154296875,10.079588989257813,20.0,101.3,50.0,0.0,0.0,6.641221374045801,0.0916030534351145,0.9007633587786259
3.15,0.0,0.0,0.0,10.122307757535856,0.8164227661132812,0.05746083984375,10.089165795898436,20.0,101.3,50.0,0.0,0.0,6.732824427480916,0.015267175572519083,0.8396946564885496
3.15,0.0,0.0,0.0,10.122307757535856,0.8164227661132812,0.05746083984375,10.089165795898436,20.0,101.3,50.0,0.0,0.0,6.732824427480916,0.015267175572519083,0.8396946564885496
3.16,0.0,0.0,0.0,10.122307757535856,0.8164227661132812,0.05746083984375,10.089165795898436,20.0,101.3,50.0,0.0,0.0,6.732824427480916,0.015267175572519083,0.8396946564885496
3.16,0.0,0.0,0.0,10.122307757535856,0.8164227661132812,0.05746083984375,10.089165795898436,20.0,101.3,50.0,0.0,0.0,6.732824427480916,0.015267175572519083,0.8396946564885496
3.16,0.0,0.0,0.0,10.03010774211558,0.8499415893554687,0.11252747802734374,9.993397729492187,20.0,101.3,50.0,0.0,0.0,5.00763358778626,-0.366412213740458,0.7633587786259542
3.17,0.0,0.0,0.0,10.03010774211558,0.8499415893554687,0.11252747802734374,9.993397729492187,20.0,101.3,50.0,0.0,0.0,5.00763358778626,-0.366412213740458,0.7633587786259542
3.17,0.0,0.0,0.0,10.03010774211558,0.8499415893554687,0.11252747802734374,9.993397729492187,20.0,101.3,50.0,0.0,0.0,5.00763358778626,-0.366412213740458,0.7633587786259542
3.17,0.0,0.0,0.0,10.03010774211558,0.8499415893554687,0.11252747802734374,9.993397729492187,20.0,101.3,50.0,0.0,0.0,5.00763358778626,-0.366412213740458,0.7633587786259542
3.17,0.0,0.0,0.0,10.180387579038785,0.8283937744140625,-0.0047884033203125,10.146626635742187,20.0,101.3,50.0,0.0,0.0,6.961832061068702,0.22900763358778625,0.6717557251908397
3.18,0.0,0.0,0.0,10.180387579038785,0.8283937744140625,-0.0047884033203125,10.146626635742187,20.0,101.3,50.0,0.0,0.0,6.961832061068702,0.22900763358778625,0.6717557251908397
3.18,0.0,0.0,0.0,10.180387579038785,0.8283937744140625,-0.0047884033203125,10.146626635742187,20.0,101.3,50.0,0.0,0.0,6.961832061068702,0.22900763358778625,0.6717557251908397
3.19,0.0,0.0,0.0,9.832937249807804,0.7805097412109374,0.031124621582031248,9.801861596679688,20.0,101.3,50.0,0.0,0.0,5.221374045801527,-0.24427480916030533,0.5954198473282443
3.19,0.0,0.0,0.0,9.832937249807804,0.7805097412109374,0.031124621582031248,9.801861596679688,20.0,101.3,50.0,0.0,0.0,5.221374045801527,-0.24427480916030533,0.5954198473282443
3.19,0.0,0.0,0.0,9.832937249807804,0.7805097412109374,0.031124621582031248,9.801861596679688,20.0,101.3,50.0,0.0,0.0,5.221374045801527,-0.24427480916030533,0.5954198473282443
3.19,0.0,0.0,0.0,9.832937249807804,0.7805097412109374,0.031124621582031248,9.801861596679688,20.0,101.3,50.0,0.0,0.0,5.221374045801527,-0.24427480916030533,0.5954198473282443
3.2,0.0,0.0,0.0,10.034658988823143,0.8547299926757812,0.009576806640625,9.9981861328125,20.0,101.3,50.0,0.0,0.0,6.106870229007634,-0.2595419847328244,1.1297709923664123
3.21,0.0,0.0,0.0,10.034658988823143,0.8547299926757812,0.009576806640625,9.9981861328125,20.0,101.3,50.0,0.0,0.0,6.106870229007634,-0.2595419847328244,1.1297709923664123
3.21,0.0,0.0,0.0,10.034658988823143,0.8547299926757812,0.009576806640625,9.9981861328125,20.0,101.3,50.0,0.0,0.0,6.106870229007634,-0.2595419847328244,1.1297709923664123
3.21,0.0,0.0,0.0,9.960244360615976,0.7900865478515624,0.04548983154296875,9.928754284667969,20.0,101.3,50.0,0.0,0.0,3.9389312977099236,-0.6259541984732825,0.8549618320610687
3.21,0.0,0.0,0.0,9.960244360615976,0.7900865478515624,0.04548983154296875,9.928754284667969,20.0,101.3,50.0,0.0,0.0,3.9389312977099236,-0.6259541984732825,0.8549618320610687
3.22,0.0,0.0,0.0,10.094592481378285,0.8858546142578124,0.0047884033203125,10.05564697265625,20.0,101.3,50.0,0.0,0.0,5.404580152671755,-0.366412213740458,0.9312977099236641
3.22,0.0,0.0,0.0,10.094592481378285,0.8858546142578124,0.0047884033203125,10.05564697265625,20.0,101.3,50.0,0.0,0.0,5.404580152671755,-0.366412213740458,0.9312977099236641
3.23,0.0,0.0,0.0,10.094592481378285,0.8858546142578124,0.0047884033203125,10.05564697265625,20.0,101.3,50.0,0.0,0.0,5.404580152671755,-0.366412213740458,0.9312977099236641
3.23,0.0,0.0,0.0,10.094592481378285,0.8858546142578124,0.0047884033203125,10.05564697265625,20.0,101.3,50.0,0.0,0.0,5.404580152671755,-0.366412213740458,0.9312977099236641
3.23,0.0,0.0,0.0,10.094592481378285,0.8858546142578124,0.0047884033203125,10.05564697265625,20.0,101.3,50.0,0.0,0.0,5.404580152671755,-0.366412213740458,0.9312977099236641
3.23,0.0,0.0,0.0,10.084369718851935,0.8212111694335937,0.01915361328125,10.050858569335936,20.0,101.3,50.0,0.0,0.0,4.183206106870229,-0.5038167938931297,0.7480916030534351
3.24,0.0,0.0,0.0,10.084369718851935,0.8212111694335937,0.01915361328125,10.050858569335936,20.0,101.3,50.0,0.0,0.0,4.183206106870229,-0.5038167938931297,0.7480916030534351
3.24,0.0,0.0,0.0,10.003946667716427,0.8259995727539062,0.08140285644531249,9.969455712890625,20.0,101.3,50.0,0.0,0.0,4.641221374045801,-0.33587786259541985,0.5801526717557252
