# targetAltitude=1500.0
time,altitude,velocity,horizontalVelocity,acceleration,accelerationX,accelerationY,accelerationZ,temperature,pressure,humidity,gpsLat,gpsLon,pitch,roll,yaw
0.0,0.0,0.0,0.0,0.0,0.0,0.0,0.0,20.0,101.3,50.0,0.0,0.0,0.0,0.0,0.0
0.02,0.0,0.0,0.0,0.0,0.0,0.0,0.0,20.0,101.3,50.0,0.0,0.0,0.0,0.0,0.0
0.03,0.0,0.0,0.0,0.0,0.0,0.0,0.0,20.0,101.3,50.0,0.0,0.0,0.0,0.0,0.0
0.06,0.0,0.0,0.0,0.0,0.0,0.0,0.0,20.0,101.3,50.0,0.0,0.0,0.0,0.0,0.0
0.09,0.0,0.0,0.0,0.0,0.0,0.0,0.0,20.0,101.3,50.0,0.0,0.0,0.0,0.0,0.0
0.12,0.0,0.0,0.0,0.0,0.0,0.0,0.0,20.0,101.3,50.0,0.0,0.0,0.0,0.0,0.0
0.12,0.0,0.0,0.0,0.0,0.0,0.0,0.0,20.0,101.3,50.0,0.0,0.0,0.0,0.0,0.0
0.15,0.0,0.0,0.0,0.0,0.0,0.0,0.0,20.0,101.3,50.0,0.0,0.0,0.0,0.0,0.0
0.18,0.0,0.0,0.0,0.0,0.0,0.0,0.0,20.0,101.3,50.0,0.0,0.0,0.0,0.0,0.0
0.21,0.0,0.0,0.0,0.0,0.0,0.0,0.0,20.0,101.3,50.0,0.0,0.0,0.0,0.0,0.0
0.22,0.0,0.0,0.0,0.0,0.0,0.0,0.0,20.0,101.3,50.0,0.0,0.0,0.0,0.0,0.0
0.24,0.0,0.0,0.0,0.0,0.0,0.0,0.0,20.0,101.3,50.0,0.0,0.0,0.0,0.0,0.0
0.27,0.0,0.0,0.0,0.0,0.0,0.0,0.0,20.0,101.3,50.0,0.0,0.0,0.0,0.0,0.0
0.3,0.0,0.0,0.0,0.0,0.0,0.0,0.0,20.0,101.3,50.0,0.0,0.0,0.0,0.0,0.0
0.32,0.0,0.0,0.0,0.0,0.0,0.0,0.0,20.0,101.3,50.0,0.0,0.0,0.0,0.0,0.0
0.33,0.0,0.0,0.0,0.0,0.0,0.0,0.0,20.0,101.3,50.0,0.0,0.0,0.0,0.0,0.0
0.36,0.0,0.0,0.0,0.0,0.0,0.0,0.0,20.0,101.3,50.0,0.0,0.0,0.0,0.0,0.0
0.39,0.0,0.0,0.0,0.0,0.0,0.0,0.0,20.0,101.3,50.0,0.0,0.0,0.0,0.0,0.0
0.42,0.0,0.0,0.0,0.0,0.0,0.0,0.0,20.0,101.3,50.0,0.0,0.0,0.0,0.0,0.0
0.42,0.0,0.0,0.0,0.0,0.0,0.0,0.0,20.0,101.3,50.0,0.0,0.0,0.0,0.0,0.0
0.45,0.0,0.0,0.0,0.0,0.0,0.0,0.0,20.0,101.3,50.0,0.0,0.0,0.0,0.0,0.0
0.48,0.0,0.0,0.0,0.0,0.0,0.0,0.0,20.0,101.3,50.0,0.0,0.0,0.0,0.0,0.0
0.51,0.0,0.0,0.0,0.0,0.0,0.0,0.0,20.0,101.3,50.0,0.0,0.0,0.0,0.0,0.0
0.52,0.0,0.0,0.0,0.0,0.0,0.0,0.0,20.0,101.3,50.0,0.0,0.0,0.0,0.0,0.0
0.54,0.0,0.0,0.0,0.0,0.0,0.0,0.0,20.0,101.3,50.0,0.0,0.0,0.0,0.0,0.0
0.57,0.0,0.0,0.0,0.0,0.0,0.0,0.0,20.0,101.3,50.0,0.0,0.0,0.0,0.0,0.0
0.6,0.0,0.0,0.0,0.0,0.0,0.0,0.0,20.0,101.3,50.0,0.0,0.0,0.0,0.0,0.0
0.62,0.0,0.0,0.0,0.0,0.0,0.0,0.0,20.0,101.3,50.0,0.0,0.0,0.0,0.0,0.0
0.65,0.0,0.0,0.0,0.0,0.0,0.0,0.0,20.0,101.3,50.0,0.0,0.0,0.0,0.0,0.0
0.72,0.0,0.0,0.0,0.0,0.0,0.0,0.0,20.0,101.3,50.0,0.0,0.0,0.0,0.0,0.0
0.8,0.0,0.0,0.0,0.0,0.0,0.0,0.0,28.862267517112194,101.30934687783322,56.45505438025114,0.0,0.0,0.0,0.0,0.0
0.8,0.0,0.0,0.0,0.0,0.0,0.0,0.0,28.862267517112194,101.30934687783322,56.45505438025114,0.0,0.0,0.0,0.0,0.0
0.82,0.0,0.0,0.0,0.0,0.0,0.0,0.0,28.862267517112194,101.30934687783322,56.45505438025114,0.0,0.0,0.0,0.0,0.0
0.83,0.5413188439104399,54.13188439104395,0.0,0.0,0.0,0.0,0.0,29.50162995508872,101.30284608437962,56.58827561288256,0.0,0.0,0.0,0.0,0.0
0.86,0.5117869592627422,-0.984396154923257,0.0,0.0,0.0,0.0,0.0,29.47142375423573,101.30320072927911,56.57716280008631,0.0,0.0,0.0,0.0,0.0
0.89,0.2826257356089623,-7.6387074551259895,0.0,0.0,0.0,0.0,0.0,29.431148835411296,101.30595273339661,56.557880011559135,0.0,0.0,0.0,0.0,0.0
0.92,-0.03216683381380259,-10.493085647425488,0.0,0.0,0.0,0.0,0.0,29.380805212026463,101.30973318564502,56.55724382083943,0.0,0.0,0.0,0.0,0.0
0.92,-0.03216683381380259,-10.493085647425488,0.0,0.0,0.0,0.0,0.0,29.380805212026463,101.30973318564502,56.55724382083943,0.0,0.0,0.0,0.0,0.0
0.95,0.06587686620712518,3.268123334030935,0.0,0.0,0.0,0.0,0.0,29.325427258573473,101.30855573287829,56.54917371840439,0.0,0.0,0.0,0.0,0.0
0.98,0.37821689698739114,10.41133435934219,0.0,0.0,0.0,0.0,0.0,29.295221116393805,101.30480476886805,56.54477356441389,0.0,0.0,0.0,0.0,0.0
1.01,0.06373671613259191,-10.482672695159964,0.0,0.0,0.0,0.0,0.0,29.2448775684461,101.30858143482578,56.53074131284797,0.0,0.0,0.0,0.0,0.0
1.02,0.06373671613259191,0.0,0.0,0.0,0.0,0.0,0.0,29.2448775684461,101.30858143482578,56.53074131284797,0.0,0.0,0.0,0.0,0.0
1.04,0.8598275505293818,39.804541719839456,0.0,0.0,0.0,0.0,0.0,29.204602750204504,101.29902121499438,56.50477842435215,0.0,0.0,0.0,0.0,0.0
1.07,0.19026908724746772,-22.318615442730447,0.0,0.0,0.0,0.0,0.0,29.1794309978839,101.30706186431523,56.50781673721944,0.0,0.0,0.0,0.0,0.0
1.1,0.8725196536369151,22.74168554631489,0.0,0.0,0.0,0.0,0.0,29.139156208699568,101.29886880200233,56.48856119406148,0.0,0.0,0.0,0.0,0.0
1.12,0.8725196536369151,0.0,0.0,0.0,0.0,0.0,0.0,29.139156208699568,101.29886880200233,56.48856119406148,0.0,0.0,0.0,0.0,0.0
1.13,0.43078847855040125,-44.173117508652325,0.0,0.0,0.0,0.0,0.0,29.113984474539755,101.30417343558534,56.491600948528514,0.0,0.0,0.0,0.0,0.0
1.16,0.2878741779428018,-4.763810020253311,0.0,0.0,0.0,0.0,0.0,29.083778402768075,101.30588970401537,56.487210890756266,0.0,0.0,0.0,0.0,0.0
1.19,0.34441260268716745,1.8846141581455202,0.0,0.0,0.0,0.0,0.0,29.06364102717489,101.30521072706685,56.47758678506503,0.0,0.0,0.0,0.0,0.0
1.22,0.1732888800360699,-5.704124088369913,0.0,0.0,0.0,0.0,0.0,29.043503656052053,101.30726578435758,56.44787258300777,0.0,0.0,0.0,0.0,0.0
1.22,0.1732888800360699,-5.704124088369913,0.0,0.0,0.0,0.0,0.0,29.043503656052053,101.30726578435758,56.44787258300777,0.0,0.0,0.0,0.0,0.0
1.25,-0.15440444239644746,-10.923110747750568,0.0,0.0,0.0,0.0,0.0,29.018331948434934,101.31120120992384,56.46430853709191,0.0,0.0,0.0,0.0,0.0
1.28,0.3147321522078239,15.637886486809032,0.0,0.0,0.0,0.0,0.0,28.993160247802734,101.30556716281497,56.46065394503006,0.0,0.0,0.0,0.0,0.0
1.31,0.07261755701801653,-8.070486506326905,0.0,0.0,0.0,0.0,0.0,28.978057230776177,101.30847478116874,56.45846159618152,0.0,0.0,0.0,0.0,0.0
1.32,0.07261755701801653,0.0,0.0,0.0,0.0,0.0,0.0,28.978057230776177,101.30847478116874,56.45846159618152,0.0,0.0,0.0,0.0,0.0
1.34,0.28581055586903603,10.659649942550965,0.0,0.0,0.0,0.0,0.0,28.962954216264187,101.30591448637824,56.46966284386812,0.0,0.0,0.0,0.0,0.0
1.37,0.058166964575477875,-7.588119709785265,0.0,0.0,0.0,0.0,0.0,28.962954216264187,101.30864832430079,56.44287717083308,0.0,0.0,0.0,0.0,0.0
1.4,0.4134962852511692,11.844310689189788,0.0,0.0,0.0,0.0,0.0,28.93778253099881,101.30438109756449,56.45261682322011,0.0,0.0,0.0,0.0,0.0
1.42,0.4134962852511692,0.0,0.0,0.0,0.0,0.0,0.0,28.93778253099881,101.30438109756449,56.45261682322011,0.0,0.0,0.0,0.0,0.0
1.43,0.2141766817997448,-19.931960345142425,0.0,0.0,0.0,0.0,0.0,28.92771385884844,101.30677475191035,56.46454833880911,0.0,0.0,0.0,0.0,0.0
1.46,-0.21275147802870542,-14.230938660948329,0.0,0.0,0.0,0.0,0.0,28.91764518781565,101.31190194031481,56.43630405378087,0.0,0.0,0.0,0.0,0.0
1.49,-0.11335182083556994,3.3133219064378463,0.0,0.0,0.0,0.0,0.0,28.90254218336195,101.31070818260862,56.44080891171661,0.0,0.0,0.0,0.0,0.0
1.52,0.29914814610667806,13.74999889807492,0.0,0.0,0.0,0.0,0.0,28.89750784910284,101.30575431324057,56.460165799513405,0.0,0.0,0.0,0.0,0.0
1.52,0.29914814610667806,13.74999889807492,0.0,0.0,0.0,0.0,0.0,28.89750784910284,101.30575431324057,56.460165799513405,0.0,0.0,0.0,0.0,0.0
1.55,0.2847394151315319,-0.4802910325048718,0.0,0.0,0.0,0.0,0.0,28.882404848001897,101.30592734987823,56.451279281273585,0.0,0.0,0.0,0.0,0.0
1.58,-0.028342452495442316,-10.436062254232464,0.0,0.0,0.0,0.0,0.0,28.872336181998254,101.30968725664879,56.42973368233773,0.0,0.0,0.0,0.0,0.0
1.61,0.0,0.9447484165147431,0.0,0.0,0.0,0.0,0.0,28.862267517112194,101.30934687783322,56.44835893699817,0.0,0.0,0.0,0.0,0.0
1.62,0.0,0.0,0.0,0.0,0.0,0.0,0.0,28.862267517112194,101.30934687783322,56.44835893699817,0.0,0.0,0.0,0.0,0.0
1.72,0.0,0.0,0.0,0.0,0.0,0.0,0.0,28.862267517112194,101.30934687783322,56.44835893699817,0.0,0.0,0.0,0.0,0.0
1.81,0.2986802083583573,3.3186689817595223,0.0,0.0,0.0,0.0,0.0,28.857233185088262,101.30575993277226,56.434238863617644,0.0,0.0,0.0,0.0,0.0
1.81,0.2986802083583573,3.3186689817595223,0.0,0.0,0.0,0.0,0.0,28.857233185088262,101.30575993277226,56.434238863617644,0.0,0.0,0.0,0.0,0.0
1.82,0.2986802083583573,0.0,0.0,0.0,0.0,0.0,0.0,28.857233185088262,101.30575993277226,56.434238863617644,0.0,0.0,0.0,0.0,0.0
1.84,0.7262607904485274,21.379029104508486,0.0,0.0,0.0,0.0,0.0,29.496595587581396,101.30062516134312,56.54060979767022,0.0,0.0,0.0,0.0,0.0
1.87,0.05613935424635286,-22.33738120673913,0.0,0.0,0.0,0.0,0.0,29.47142375423573,101.30867267472978,56.55704979801834,0.0,0.0,0.0,0.0,0.0
1.9,0.31077731541856335,8.487932039073739,0.0,0.0,0.0,0.0,0.0,29.421080108499154,101.30561465695547,56.522896922313606,0.0,0.0,0.0,0.0,0.0
1.92,0.31077731541856335,0.0,0.0,0.0,0.0,0.0,0.0,29.421080108499154,101.30561465695547,56.522896922313606,0.0,0.0,0.0,0.0,0.0
1.93,0.19562107571825305,-11.51562397003102,0.0,0.0,0.0,0.0,0.0,29.380805212026463,101.30699759086244,56.52373037410916,0.0,0.0,0.0,0.0,0.0
1.96,0.17976155855080056,-0.5286505722484157,0.0,0.0,0.0,0.0,0.0,29.325427258573473,101.30718805211754,56.51566390485955,0.0,0.0,0.0,0.0,0.0
1.99,-0.006262951737738831,-6.200817009617974,0.0,0.0,0.0,0.0,0.0,29.290186760341747,101.30942209270164,56.50383200315137,0.0,0.0,0.0,0.0,0.0
2.02,0.2204368896169573,7.5566613784898635,0.0,0.0,0.0,0.0,0.0,29.249911921983585,101.30669957158575,56.4912703972847,0.0,0.0,0.0,0.0,0.0
2.02,0.2204368896169573,7.5566613784898635,0.0,0.0,0.0,0.0,0.0,29.249911921983585,101.30669957158575,56.4912703972847,0.0,0.0,0.0,0.0,0.0
2.05,0.0627581407019151,-5.255958297168108,0.0,0.0,0.0,0.0,0.0,29.204602750204504,101.30859318694466,56.51147857530494,0.0,0.0,0.0,0.0,0.0
2.08,0.21850607527220456,5.191597819009606,0.0,0.0,0.0,0.0,0.0,29.169362298911437,101.3067227591896,56.47285606790541,0.0,0.0,0.0,0.0,0.0
2.11,-0.22322258190927702,-14.724288572716148,0.0,0.0,0.0,0.0,0.0,29.144190556369722,101.31202769554586,56.47589551067423,0.0,0.0,0.0,0.0,0.0
2.12,-0.22322258190927702,0.0,0.0,0.0,0.0,0.0,0.0,29.144190556369722,101.31202769554586,56.47589551067423,0.0,0.0,0.0,0.0,0.0
2.14,0.20308905224113882,21.315581707520774,0.0,0.0,0.0,0.0,0.0,29.113984474539755,101.30690790600168,56.4715054223821,0.0,0.0,0.0,0.0,0.0
2.17,0.2450861086973133,1.3999018818724913,0.0,0.0,0.0,0.0,0.0,29.078744058450685,101.30640355369034,56.4462930971771,0.0,0.0,0.0,0.0,0.0
2.2,0.30162900348706945,1.884763159658523,0.0,0.0,0.0,0.0,0.0,29.058606683975086,101.30572452027184,56.46346008867187,0.0,0.0,0.0,0.0,0.0
2.22,0.30162900348706945,0.0,0.0,0.0,0.0,0.0,0.0,29.058606683975086,101.30572452027184,56.46346008867187,0.0,0.0,0.0,0.0,0.0
2.23,0.42924274823610054,12.76137447490338,0.0,0.0,0.0,0.0,0.0,29.033434972167015,101.30419199824934,56.46650169861569,0.0,0.0,0.0,0.0,0.0
2.26,0.3009174004046855,-4.277511594380528,0.0,0.0,0.0,0.0,0.0,29.018331948434934,101.30573306601366,56.43752178657493,0.0,0.0,0.0,0.0,0.0
2.29,0.01601490442163178,-9.496749866101712,0.0,0.0,0.0,0.0,0.0,28.99819458737038,101.3091545471732,56.454688030238316,0.0,0.0,0.0,0.0,0.0
2.32,0.257505432556806,8.049684271172527,0.0,0.0,0.0,0.0,0.0,28.973022892326117,101.30625440756288,56.44433823620221,0.0,0.0,0.0,0.0,0.0
2.32,0.257505432556806,8.049684271172527,0.0,0.0,0.0,0.0,0.0,28.973022892326117,101.30625440756288,56.44433823620221,0.0,0.0,0.0,0.0,0.0
2.35,0.5845235185445807,10.900602866259067,0.0,0.0,0.0,0.0,0.0,28.95791987865232,101.30232724637827,56.44214668896073,0.0,0.0,0.0,0.0,0.0
2.38,0.31411867877003896,-9.013494659151451,0.0,0.0,0.0,0.0,0.0,28.952885541319848,101.3055745300947,56.45480835894889,0.0,0.0,0.0,0.0,0.0
2.41,0.07204191052611275,-8.069225608130807,0.0,0.0,0.0,0.0,0.0,28.93778253099881,101.30848169434056,56.43922510027353,0.0,0.0,0.0,0.0,0.0
2.42,0.07204191052611275,0.0,0.0,0.0,0.0,0.0,0.0,28.93778253099881,101.30848169434056,56.43922510027353,0.0,0.0,0.0,0.0,0.0
2.44,0.1286834931360059,2.8320791304946553,0.0,0.0,0.0,0.0,0.0,28.91764518781565,101.30780146446784,56.43630405378087,0.0,0.0,0.0,0.0,0.0
2.47,0.07152717318462232,-1.905210665046104,0.0,0.0,0.0,0.0,0.0,28.89750784910284,101.30848787603003,56.42668855613424,0.0,0.0,0.0,0.0,0.0
2.5,0.2136683579868759,4.7380394934084835,0.0,0.0,0.0,0.0,0.0,28.887439181422813,101.30678085649392,56.43861859044519,0.0,0.0,0.0,0.0,0.0
2.52,0.2136683579868759,0.0,0.0,0.0,0.0,0.0,0.0,28.887439181422813,101.30678085649392,56.43861859044519,0.0,0.0,0.0,0.0,0.0
2.53,0.057124023448086314,-15.65443345387929,0.0,0.0,0.0,0.0,0.0,28.882404848001897,101.30866084942079,56.42449873145424,0.0,0.0,0.0,0.0,0.0
2.56,0.3841465975583569,10.900752470342262,0.0,0.0,0.0,0.0,0.0,28.867301849415526,101.30473355880363,56.415614840899934,0.0,0.0,0.0,0.0,0.0
2.59,0.15653443294089908,-7.58707215391531,0.0,0.0,0.0,0.0,0.0,28.867301849415526,101.30746699350955,56.415614840899934,0.0,0.0,0.0,0.0,0.0
2.62,0.36975356068511434,7.1073042581404495,0.0,0.0,0.0,0.0,0.0,28.852198853343726,101.30490640555811,56.42681439899938,0.0,0.0,0.0,0.0,0.0
2.62,0.36975356068511434,7.1073042581404495,0.0,0.0,0.0,0.0,0.0,28.852198853343726,101.30490640555811,56.42681439899938,0.0,0.0,0.0,0.0,0.0
2.72,0.36975356068511434,0.0,0.0,0.0,0.0,0.0,0.0,28.852198853343726,101.30490640555811,56.42681439899938,0.0,0.0,0.0,0.0,0.0
2.82,-0.05710498310812051,-4.268585437932364,0.0,0.0,0.0,0.0,0.0,28.842130190692842,101.31003268134116,56.42535496087974,0.0,0.0,0.0,0.0,0.0
2.82,-0.05710498310812051,-4.268585437932364,0.0,0.0,0.0,0.0,0.0,28.842130190692842,101.31003268134116,56.42535496087974,0.0,0.0,0.0,0.0,0.0
2.82,-0.05710498310812051,-4.268585437932364,0.0,0.0,0.0,0.0,0.0,28.842130190692842,101.31003268134116,56.42535496087974,0.0,0.0,0.0,0.0,0.0
2.85,0.8254073229712844,29.417076869313252,0.0,0.0,0.0,0.0,0.0,29.481492486735807,101.29943455088409,56.53840712398766,0.0,0.0,0.0,0.0,0.0
2.88,0.26921434732352534,-18.539765854925424,0.0,0.0,0.0,0.0,0.0,29.45632065758109,101.30611379304219,56.54143989993373,0.0,0.0,0.0,0.0,0.0
2.91,0.40996105322278265,4.691556863308538,0.0,0.0,0.0,0.0,0.0,29.40597702022642,101.3044235522145,56.513993851710865,0.0,0.0,0.0,0.0,0.0
2.92,0.40996105322278265,0.0,0.0,0.0,0.0,0.0,0.0,29.40597702022642,101.3044235522145,56.513993851710865,0.0,0.0,0.0,0.0,0.0
2.94,0.3229964681682218,-4.348229252728038,0.0,0.0,0.0,0.0,0.0,29.355633410811425,101.30546791564647,56.51336161506376,0.0,0.0,0.0,0.0,0.0
2.97,0.20794984568233033,-3.834887416196351,0.0,0.0,0.0,0.0,0.0,29.315358543395995,101.30684953151108,56.494094950370325,0.0,0.0,0.0,0.0,0.0
3.0,0.27789587113775993,2.331534181847669,0.0,0.0,0.0,0.0,0.0,29.270049338927492,101.30600953512074,56.47410102096952,0.0,0.0,0.0,0.0,0.0
3.02,0.27789587113775993,0.0,0.0,0.0,0.0,0.0,0.0,29.270049338927492,101.30600953512074,56.47410102096952,0.0,0.0,0.0,0.0,0.0
3.03,0.23404082368265855,-4.385504745510231,0.0,0.0,0.0,0.0,0.0,29.224740157090128,101.30653619886169,56.474209577209294,0.0,0.0,0.0,0.0,0.0
3.06,0.41799114527074077,6.131677386269357,0.0,0.0,0.0,0.0,0.0,29.1794309978839,101.30432711874961,56.487717956504454,0.0,0.0,0.0,0.0,0.0
3.09,0.38884509215386,-0.9715351038960326,0.0,0.0,0.0,0.0,0.0,29.149224904319272,101.30467713438088,56.47662731035219,0.0,0.0,0.0,0.0,0.0
3.12,0.06098393206139696,-10.928705336415343,0.0,0.0,0.0,0.0,0.0,29.124053167365492,101.3086144941561,56.45957250646353,0.0,0.0,0.0,0.0,0.0
3.12,0.06098393206139696,-10.928705336415343,0.0,0.0,0.0,0.0,0.0,29.124053167365492,101.3086144941561,56.45957250646353,0.0,0.0,0.0,0.0,0.0
3.15,-0.010867029626668856,-2.3950320562688763,0.0,0.0,0.0,0.0,0.0,29.088812747364862,101.30947738536682,56.454452724732434,0.0,0.0,0.0,0.0,0.0
3.18,-0.295835906940598,-9.498962577130893,0.0,0.0,0.0,0.0,0.0,29.06867537065409,101.3128997661494,56.45822511184933,0.0,0.0,0.0,0.0,0.0
3.21,0.5858601189561152,29.389867529890633,0.0,0.0,0.0,0.0,0.0,29.038469313969834,101.30231119539287,56.453838462693014,0.0,0.0,0.0,0.0,0.0
3.22,0.5858601189561152,0.0,0.0,0.0,0.0,0.0,0.0,29.038469313969834,101.30231119539287,56.453838462693014,0.0,0.0,0.0,0.0,0.0
3.24,0.18708517346588516,-19.938747274511485,0.0,0.0,0.0,0.0,0.0,29.018331948434934,101.30710010079814,56.43752178657493,0.0,0.0,0.0,0.0,0.0
3.27,0.20090418529910226,0.46063372777390627,0.0,0.0,0.0,0.0,0.0,28.993160247802734,101.30693414462698,56.440564528897355,0.0,0.0,0.0,0.0,0.0
3.3,0.07261755701801653,-4.276220942702885,0.0,0.0,0.0,0.0,0.0,28.978057230776177,101.30847478116874,56.44506881969438,0.0,0.0,0.0,0.0,0.0
3.32,0.07261755701801653,0.0,0.0,0.0,0.0,0.0,0.0,28.978057230776177,101.30847478116874,56.44506881969438,0.0,0.0,0.0,0.0,0.0
3.33,0.12923220867328444,5.661465165526661,0.0,0.0,0.0,0.0,0.0,28.95791987865232,101.30779487475658,56.41536492052831,0.0,0.0,0.0,0.0,0.0
3.36,0.4562504260436695,10.900607245679574,0.0,0.0,0.0,0.0,0.0,28.942816867493093,101.3038676636413,56.41986937153665,0.0,0.0,0.0,0.0,0.0
3.39,0.4418111723264373,-0.48130845724106947,0.0,0.0,0.0,0.0,0.0,28.92771385884844,101.3040410642166,56.41767902668945,0.0,0.0,0.0,0.0,0.0
3.42,0.4701290584835516,0.9439295385704821,0.0,0.0,0.0,0.0,0.0,28.91764518781565,101.30370099577705,56.409524392182796,0.0,0.0,0.0,0.0,0.0
3.42,0.4701290584835516,0.9439295385704821,0.0,0.0,0.0,0.0,0.0,28.91764518781565,101.30370099577705,56.409524392182796,0.0,0.0,0.0,0.0,0.0
3.45,0.25640736307940504,-7.124056513471492,0.0,0.0,0.0,0.0,0.0,28.89247351512313,101.30626759449021,56.425958580668286,0.0,0.0,0.0,0.0,0.0
3.48,0.35581078208716144,3.3134473002585683,0.0,0.0,0.0,0.0,0.0,28.877370514860377,101.30507384536438,56.41038007997263,0.0,0.0,0.0,0.0,0.0
3.51,-0.056681906898283785,-13.74975629951493,0.0,0.0,0.0,0.0,0.0,28.882404848001897,101.31002760038464,56.397721823123995,0.0,0.0,0.0,0.0,0.0
3.52,-0.056681906898283785,0.0,0.0,0.0,0.0,0.0,0.0,28.882404848001897,101.31002760038464,56.397721823123995,0.0,0.0,0.0,0.0,0.0
3.54,0.22760716577367113,14.214453633597733,0.0,0.0,0.0,0.0,0.0,28.862267517112194,101.30661346208949,56.40149720696036,0.0,0.0,0.0,0.0,0.0
3.57,0.25594968035533294,0.9447504860554,0.0,0.0,0.0,0.0,0.0,28.852198853343726,101.3062730908904,56.4134258240434,0.0,0.0,0.0,0.0,0.0
3.6,-0.014380655109291762,-9.011011182154082,0.0,0.0,0.0,0.0,0.0,28.847164521878586,101.30951958226224,56.39930868662202,0.0,0.0,0.0,0.0,0.0
3.62,-0.014380655109291762,0.0,0.0,0.0,0.0,0.0,0.0,28.847164521878586,101.30951958226224,56.39930868662202,0.0,0.0,0.0,0.0,0.0
3.63,0.05669389867317132,7.10745537824646,0.0,0.0,0.0,0.0,0.0,28.842130190692842,101.30866601497102,56.411966649072944,0.0,0.0,0.0,0.0,0.0
3.72,0.05669389867317132,0.0,0.0,0.0,0.0,0.0,0.0,28.842130190692842,101.30866601497102,56.411966649072944,0.0,0.0,0.0,0.0,0.0
3.82,0.05669389867317132,0.0,0.0,0.0,0.0,0.0,0.0,28.842130190692842,101.30866601497102,56.411966649072944,0.0,0.0,0.0,0.0,0.0
3.83,0.312643702920411,25.594980424723378,0.0,0.0,0.0,0.0,0.0,28.832061529159546,101.30559224326717,56.40381392687115,0.0,0.0,0.0,0.0,0.0
3.83,0.312643702920411,25.594980424723378,0.0,0.0,0.0,0.0,0.0,28.832061529159546,101.30559224326717,56.40381392687115,0.0,0.0,0.0,0.0,0.0
3.86,0.7396178370554829,14.232471137835823,0.0,0.0,0.0,0.0,0.0,29.47142375423573,101.30046476133246,56.503425134056165,0.0,0.0,0.0,0.0,0.0
3.89,0.1405714406751446,-19.968213212677778,0.0,0.0,0.0,0.0,0.0,29.441217563441022,101.30765869814545,56.50572497276129,0.0,0.0,0.0,0.0,0.0
3.92,0.3670894951097714,7.550601814487609,0.0,0.0,0.0,0.0,0.0,29.400942658027635,101.30493839849119,56.50655851528451,0.0,0.0,0.0,0.0,0.0
3.92,0.3670894951097714,7.550601814487609,0.0,0.0,0.0,0.0,0.0,29.400942658027635,101.30493839849119,56.50655851528451,0.0,0.0,0.0,0.0,0.0
3.95,0.19442865311667057,-5.75536139976998,0.0,0.0,0.0,0.0,0.0,29.34053033343516,101.30701191097968,56.48435832953001,0.0,0.0,0.0,0.0,0.0
3.98,0.12225938480613374,-2.40564227701791,0.0,0.0,0.0,0.0,0.0,29.305289829336107,101.30787861379278,56.472528970713384,0.0,0.0,0.0,0.0,0.0
4.01,0.07835349553401816,-1.4635296424038624,0.0,0.0,0.0,0.0,0.0,29.259980629896745,101.30840589598111,56.46593694636271,0.0,0.0,0.0,0.0,0.0
4.02,0.07835349553401816,0.0,0.0,0.0,0.0,0.0,0.0,29.259980629896745,101.30840589598111,56.46593694636271,0.0,0.0,0.0,0.0,0.0
4.04,0.19121748283507434,5.643199365052679,0.0,0.0,0.0,0.0,0.0,29.219705804949626,101.307050474778,56.4868760530175,0.0,0.0,0.0,0.0,0.0
4.07,0.41799114527074077,7.559122081188819,0.0,0.0,0.0,0.0,0.0,29.1794309978839,101.30432711874961,56.46092276758057,0.0,0.0,0.0,0.0,0.0
4.1,0.6876103794021615,8.987307804380883,0.0,0.0,0.0,0.0,0.0,29.144190556369722,101.30108930150811,56.455800845434226,0.0,0.0,0.0,0.0,0.0
4.12,0.6876103794021615,0.0,0.0,0.0,0.0,0.0,0.0,29.144190556369722,101.30108930150811,56.455800845434226,0.0,0.0,0.0,0.0,0.0
4.13,0.3169381764502721,-37.06722029518973,0.0,0.0,0.0,0.0,0.0,29.113984474539755,101.30554067039571,56.45141194410235,0.0,0.0,0.0,0.0,0.0
4.16,0.10297547796324857,-7.132089949567392,0.0,0.0,0.0,0.0,0.0,29.088812747364862,101.30811020114365,56.44105841445551,0.0,0.0,0.0,0.0,0.0
4.19,0.1877897244150173,2.8271415483922673,0.0,0.0,0.0,0.0,0.0,29.058606683975086,101.30709163965395,56.4366721398292,0.0,0.0,0.0,0.0,0.0
4.22,0.6569186735356902,15.637631637356098,0.0,0.0,0.0,0.0,0.0,29.033434972167015,101.30145786940811,56.439714157479834,0.0,0.0,0.0,0.0,0.0
4.22,0.6569186735356902,15.637631637356098,0.0,0.0,0.0,0.0,0.0,29.033434972167015,101.30145786940811,56.439714157479834,0.0,0.0,0.0,0.0,0.0
4.25,0.4430387568124705,-7.129330557440598,0.0,0.0,0.0,0.0,0.0,29.008263267343864,101.30402632218107,56.409277792732034,0.0,0.0,0.0,0.0,0.0
4.28,0.27196684130959436,-5.702397183429158,0.0,0.0,0.0,0.0,0.0,28.988125908514483,101.3060807378563,56.433137958631335,0.0,0.0,0.0,0.0,0.0
4.31,0.10092338303403836,-5.701448609185322,0.0,0.0,0.0,0.0,0.0,28.967988554155454,101.30813484551261,56.416825391328786,0.0,0.0,0.0,0.0,0.0
4.32,0.10092338303403836,0.0,0.0,0.0,0.0,0.0,0.0,28.967988554155454,101.30813484551261,56.416825391328786,0.0,0.0,0.0,0.0,0.0
4.34,0.08647802411775096,-0.7222679458143854,0.0,0.0,0.0,0.0,0.0,28.952885541319848,101.30830832532173,56.41463473592711,0.0,0.0,0.0,0.0,0.0
4.37,0.18585885820624704,3.3126944696165084,0.0,0.0,0.0,0.0,0.0,28.93778253099881,101.30711482795337,56.40574977556718,0.0,0.0,0.0,0.0,0.0
4.4,0.0576150416193133,-4.274793886231089,0.0,0.0,0.0,0.0,0.0,28.922679523192347,101.30865495257629,56.41694897950417,0.0,0.0,0.0,0.0,0.0
4.42,0.0576150416193133,0.0,0.0,0.0,0.0,0.0,0.0,28.922679523192347,101.30865495257629,56.41694897950417,0.0,0.0,0.0,0.0,0.0
4.43,0.014870658989049046,-4.274438263026517,0.0,0.0,0.0,0.0,0.0,28.91764518781565,101.30916828895502,56.41621896620464,0.0,0.0,0.0,0.0,0.0
4.46,0.0004570455614760771,-0.48045378091909496,0.0,0.0,0.0,0.0,0.0,28.90254218336195,101.30934138895,56.393946682768444,0.0,0.0,0.0,0.0,0.0
4.49,0.01438989659015677,0.4644283676226859,0.0,0.0,0.0,0.0,0.0,28.877370514860377,101.30917406265735,56.41038007997263,0.0,0.0,0.0,0.0,0.0
4.52,0.3130744655174189,9.956152297575617,0.0,0.0,0.0,0.0,0.0,28.872336181998254,101.30558707018413,56.39626263599954,0.0,0.0,0.0,0.0,0.0
4.52,0.3130744655174189,9.956152297575617,0.0,0.0,0.0,0.0,0.0,28.872336181998254,101.30558707018413,56.39626263599954,0.0,0.0,0.0,0.0,0.0
4.55,-0.2276024581863556,-18.022564123459002,0.0,0.0,0.0,0.0,0.0,28.862267517112194,101.31208029675697,56.38811018961373,0.0,0.0,0.0,0.0,0.0
4.58,0.3270234879072087,18.48753153645199,0.0,0.0,0.0,0.0,0.0,28.847164521878586,101.30541955470858,56.392615261536264,0.0,0.0,0.0,0.0,0.0
4.61,0.028345450440394604,-9.955934582227053,0.0,0.0,0.0,0.0,0.0,28.852198853343726,101.30900646393991,56.40003815948694,0.0,0.0,0.0,0.0,0.0
4.62,0.028345450440394604,0.0,0.0,0.0,0.0,0.0,0.0,28.852198853343726,101.30900646393991,56.40003815948694,0.0,0.0,0.0,0.0,0.0
4.64,0.12776876215833233,4.971165585896992,0.0,0.0,0.0,0.0,0.0,28.837095859786494,101.30781244978367,56.397849842647375,0.0,0.0,0.0,0.0,0.0
4.72,0.12776876215833233,0.0,0.0,0.0,0.0,0.0,0.0,28.837095859786494,101.30781244978367,56.397849842647375,0.0,0.0,0.0,0.0,0.0
4.82,0.12776876215833233,0.0,0.0,0.0,0.0,0.0,0.0,28.837095859786494,101.30781244978367,56.397849842647375,0.0,0.0,0.0,0.0,0.0
4.84,0.15612097288491333,1.4176105363290805,0.0,0.0,0.0,0.0,0.0,28.827027198811994,101.30747195887878,56.40308452391021,0.0,0.0,0.0,0.0,0.0
4.84,0.15612097288491333,1.4176105363290805,0.0,0.0,0.0,0.0,0.0,28.827027198811994,101.30747195887878,56.40308452391021,0.0,0.0,0.0,0.0,0.0
4.87,0.31209887953698057,5.199263555068865,0.0,0.0,0.0,0.0,0.0,29.46135502285324,101.30559878612107,56.522064795286,0.0,0.0,0.0,0.0,0.0
4.9,0.09769403497536411,-7.146828152053823,0.0,0.0,0.0,0.0,0.0,29.43618319928646,101.30817362796078,56.49158792855158,0.0,0.0,0.0,0.0,0.0
4.92,0.09769403497536411,0.0,0.0,0.0,0.0,0.0,0.0,29.43618319928646,101.30817362796078,56.49158792855158,0.0,0.0,0.0,0.0,0.0
4.93,0.665922343932478,56.8228308957126,0.0,0.0,0.0,0.0,0.0,29.395908296108246,101.3013497467981,56.479020368897395,0.0,0.0,0.0,0.0,0.0
4.96,0.3511727996347802,-10.491651476589839,0.0,0.0,0.0,0.0,0.0,29.345564692281187,101.30512954327065,56.491791881709204,0.0,0.0,0.0,0.0,0.0
4.99,0.12225938480613374,-7.630447160954819,0.0,0.0,0.0,0.0,0.0,29.305289829336107,101.30787861379278,56.472528970713384,0.0,0.0,0.0,0.0,0.0
5.02,0.1493950371261621,0.9045217440009642,0.0,0.0,0.0,0.0,0.0,29.254946275800467,101.30755273274147,56.465204667834726,0.0,0.0,0.0,0.0,0.0
5.02,0.1493950371261621,0.9045217440009642,0.0,0.0,0.0,0.0,0.0,29.254946275800467,101.30755273274147,56.465204667834726,0.0,0.0,0.0,0.0,0.0
5.05,0.33330701472279234,6.130399253220958,0.0,0.0,0.0,0.0,0.0,29.209637101506814,101.30534409515802,56.44521911330247,0.0,0.0,0.0,0.0,0.0
5.08,0.2613169113301361,-2.3996701130885207,0.0,0.0,0.0,0.0,0.0,29.17439664825797,101.30620863479277,56.466889353059365,0.0,0.0,0.0,0.0,0.0
5.11,0.4453371483059676,6.134007899194332,0.0,0.0,0.0,0.0,0.0,29.129087514197455,101.30399872085208,56.44690867386404,0.0,0.0,0.0,0.0,0.0
5.12,0.4453371483059676,0.0,0.0,0.0,0.0,0.0,0.0,29.129087514197455,101.30399872085208,56.44690867386404,0.0,0.0,0.0,0.0,0.0
5.14,0.27414207807608837,-8.559753511494144,0.0,0.0,0.0,0.0,0.0,29.108950128545985,101.30605461506039,56.437286196223596,0.0,0.0,0.0,0.0,0.0
5.17,0.1312438921473158,-4.76327286429238,0.0,0.0,0.0,0.0,0.0,29.078744058450685,101.3077707157694,56.43959618765109,0.0,0.0,0.0,0.0,0.0
5.2,0.2588471833438444,4.25344303988425,0.0,0.0,0.0,0.0,0.0,29.05357234105468,101.30623829422177,56.43594121242617,0.0,0.0,0.0,0.0,0.0
5.22,0.2588471833438444,0.0,0.0,0.0,0.0,0.0,0.0,29.05357234105468,101.30623829422177,56.43594121242617,0.0,0.0,0.0,0.0,0.0
5.23,0.11602481505893047,-14.282236828490426,0.0,0.0,0.0,0.0,0.0,29.023366289399565,101.3079534869292,56.42486040137979,0.0,0.0,0.0,0.0,0.0
5.26,0.24366995185063134,4.254837893056786,0.0,0.0,0.0,0.0,0.0,28.99819458737038,101.30642056061053,56.427903243992205,0.0,0.0,0.0,0.0,0.0
5.29,0.27196684130959436,0.943229648632093,0.0,0.0,0.0,0.0,0.0,28.988125908514483,101.3060807378563,56.413051470923854,0.0,0.0,0.0,0.0,0.0
5.32,0.5845235185445807,10.418555907832793,0.0,0.0,0.0,0.0,0.0,28.95791987865232,101.30232724637827,56.41536492052831,0.0,0.0,0.0,0.0,0.0
5.32,0.5845235185445807,10.418555907832793,0.0,0.0,0.0,0.0,0.0,28.95791987865232,101.30232724637827,56.41536492052831,0.0,0.0,0.0,0.0,0.0
5.35,0.2713636269563935,-10.438663052939797,0.0,0.0,0.0,0.0,0.0,28.947851204266772,101.30608798196313,56.413904585195006,0.0,0.0,0.0,0.0,0.0
5.38,0.2141766817997448,-1.906231505221607,0.0,0.0,0.0,0.0,0.0,28.92771385884844,101.30677475191035,56.41767902668945,0.0,0.0,0.0,0.0,0.0
5.41,0.1286834931360059,-2.8497729554579396,0.0,0.0,0.0,0.0,0.0,28.91764518781565,101.30780146446784,56.39613592689447,0.0,0.0,0.0,0.0,0.0
5.42,0.1286834931360059,0.0,0.0,0.0,0.0,0.0,0.0,28.91764518781565,101.30780146446784,56.39613592689447,0.0,0.0,0.0,0.0,0.0
5.44,0.25640736307940504,6.386193497169809,0.0,0.0,0.0,0.0,0.0,28.89247351512313,101.30626759449021,56.412569408074084,0.0,0.0,0.0,0.0,0.0
5.47,0.2136683579868759,-1.4246335030843353,0.0,0.0,0.0,0.0,0.0,28.887439181422813,101.30678085649392,56.39845146753535,0.0,0.0,0.0,0.0,0.0
5.5,0.01438989659015677,-6.642615379890582,0.0,0.0,0.0,0.0,0.0,28.877370514860377,101.30917406265735,56.42376885771078,0.0,0.0,0.0,0.0,0.0
5.52,0.01438989659015677,0.0,0.0,0.0,0.0,0.0,0.0,28.877370514860377,101.30917406265735,56.42376885771078,0.0,0.0,0.0,0.0,0.0
5.53,0.22760716577367113,21.321726918349995,0.0,0.0,0.0,0.0,0.0,28.862267517112194,101.30661346208949,56.40149720696036,0.0,0.0,0.0,0.0,0.0
5.56,0.028345450440394604,-6.642057177776025,0.0,0.0,0.0,0.0,0.0,28.852198853343726,101.30900646393991,56.39334466860851,0.0,0.0,0.0,0.0,0.0
5.59,0.12776876215833233,3.3141103905978966,0.0,0.0,0.0,0.0,0.0,28.837095859786494,101.30781244978367,56.39115654913857,0.0,0.0,0.0,0.0,0.0
5.62,0.2415686752697377,3.793330437046814,0.0,0.0,0.0,0.0,0.0,28.837095859786494,101.30644579527947,56.39115654913857,0.0,0.0,0.0,0.0,0.0
5.62,0.2415686752697377,3.793330437046814,0.0,0.0,0.0,0.0,0.0,28.837095859786494,101.30644579527947,56.39115654913857,0.0,0.0,0.0,0.0,0.0
5.65,-0.3274191221802836,-18.966259915000553,0.0,0.0,0.0,0.0,0.0,28.837095859786494,101.31327907574992,56.40454336375946,0.0,0.0,0.0,0.0,0.0
5.72,-0.3274191221802836,0.0,0.0,0.0,0.0,0.0,0.0,28.837095859786494,101.31327907574992,56.40454336375946,0.0,0.0,0.0,0.0,0.0
5.82,-0.3274191221802836,0.0,0.0,0.0,0.0,0.0,0.0,28.837095859786494,101.31327907574992,56.40454336375946,0.0,0.0,0.0,0.0,0.0
5.85,0.07068038040330071,13.269983419453093,0.0,0.0,0.0,0.0,0.0,28.816958538955078,101.30849804550868,56.368161805876646,0.0,0.0,0.0,0.0,0.0
5.85,0.07068038040330071,13.269983419453093,0.0,0.0,0.0,0.0,0.0,28.816958538955078,101.30849804550868,56.368161805876646,0.0,0.0,0.0,0.0,0.0
5.88,0.8816657744588563,27.032846468518297,0.0,0.0,0.0,0.0,0.0,29.46135502285324,101.2987589710179,56.522064795286,0.0,0.0,0.0,0.0,0.0
5.91,0.6243455656278085,-8.577340294368188,0.0,0.0,0.0,0.0,0.0,29.431148835411296,101.3018490317137,56.51766195749937,0.0,0.0,0.0,0.0,0.0
5.92,0.6243455656278085,0.0,0.0,0.0,0.0,0.0,0.0,29.431148835411296,101.3018490317137,56.51766195749937,0.0,0.0,0.0,0.0,0.0
5.94,0.23848550869564278,-19.29300284660784,0.0,0.0,0.0,0.0,0.0,29.38583957310766,101.30648282167938,56.49765696463071,0.0,0.0,0.0,0.0,0.0
5.97,0.4932418347377632,8.491877534737528,0.0,0.0,0.0,0.0,0.0,29.335495974868536,101.30342343599341,56.476925170655655,0.0,0.0,0.0,0.0,0.0
6.0,0.036576046530925055,-15.222192940227812,0.0,0.0,0.0,0.0,0.0,29.295221116393805,101.30890761900014,56.46436432138081,0.0,0.0,0.0,0.0,0.0
6.02,0.036576046530925055,0.0,0.0,0.0,0.0,0.0,0.0,29.295221116393805,101.30890761900014,56.46436432138081,0.0,0.0,0.0,0.0,0.0
6.03,0.3343099710993436,29.773392456839844,0.0,0.0,0.0,0.0,0.0,29.249911921983585,101.30533205055102,56.48457056245855,0.0,0.0,0.0,0.0,0.0
6.06,0.44717421873926244,3.762141587997376,0.0,0.0,0.0,0.0,0.0,29.209637101506814,101.30397665952117,56.472013155459095,0.0,0.0,0.0,0.0,0.0
6.09,-0.35077110836006176,-26.598177569977253,0.0,0.0,0.0,0.0,0.0,29.169362298911437,101.31355953028356,56.45276109588852,0.0,0.0,0.0,0.0,0.0
6.12,0.10378139852252999,15.1517502294196,0.0,0.0,0.0,0.0,0.0,29.129087514197455,101.30810052254613,56.43351421881023,0.0,0.0,0.0,0.0,0.0
6.12,0.10378139852252999,15.1517502294196,0.0,0.0,0.0,0.0,0.0,29.129087514197455,101.30810052254613,56.43351421881023,0.0,0.0,0.0,0.0,0.0
6.15,0.11750128161271522,0.45732943633950407,0.0,0.0,0.0,0.0,0.0,29.10391578283161,101.30793575552003,56.44994924737171,0.0,0.0,0.0,0.0,0.0
6.18,0.35892950299065807,8.047607379264933,0.0,0.0,0.0,0.0,0.0,29.078744058450685,101.3050363924068,56.43959618765109,0.0,0.0,0.0,0.0,0.0
6.21,0.3299049525856501,-0.9674850135002571,0.0,0.0,0.0,0.0,0.0,29.048537998413668,101.30538495088317,56.428514032329545,0.0,0.0,0.0,0.0,0.0
6.22,0.3299049525856501,0.0,0.0,0.0,0.0,0.0,0.0,29.048537998413668,101.30538495088317,56.428514032329545,0.0,0.0,0.0,0.0,0.0
6.24,0.45752546506727665,6.38102562408118,0.0,0.0,0.0,0.0,0.0,29.023366289399565,101.30385235174656,56.42486040137979,0.0,0.0,0.0,0.0,0.0
6.27,0.01601490442163178,-14.717018688188476,0.0,0.0,0.0,0.0,0.0,28.99819458737038,101.3091545471732,56.414512216270744,0.0,0.0,0.0,0.0,0.0
6.3,0.343029807441122,10.90049676731625,0.0,0.0,0.0,0.0,0.0,28.983091569505632,101.30522733318236,56.43240743913185,0.0,0.0,0.0,0.0,0.0
6.32,0.343029807441122,0.0,0.0,0.0,0.0,0.0,0.0,28.983091569505632,101.30522733318236,56.43240743913185,0.0,0.0,0.0,0.0,0.0
6.33,0.3713304625880198,2.830065514689844,0.0,0.0,0.0,0.0,0.0,28.973022892326117,101.30488746844664,56.41755567752341,0.0,0.0,0.0,0.0,0.0
6.36,0.5700722282903392,6.624725523410591,0.0,0.0,0.0,0.0,0.0,28.942816867493093,101.30250078936338,56.41986937153665,0.0,0.0,0.0,0.0,0.0
6.39,0.3707439227379261,-6.644276851747245,0.0,0.0,0.0,0.0,0.0,28.932748194783926,101.30489451223924,56.411714336236344,0.0,0.0,0.0,0.0,0.0
6.42,0.15700878278072872,-7.124504665239854,0.0,0.0,0.0,0.0,0.0,28.907576517900452,101.30746129689643,56.3946763969269,0.0,0.0,0.0,0.0,0.0
6.42,0.15700878278072872,-7.124504665239854,0.0,0.0,0.0,0.0,0.0,28.907576517900452,101.30746129689643,56.3946763969269,0.0,0.0,0.0,0.0,0.0
6.45,-0.08501836306087585,-8.067571528053419,0.0,0.0,0.0,0.0,0.0,28.89247351512313,101.3103679090386,56.38579379397525,0.0,0.0,0.0,0.0,0.0
6.48,0.24200264324808152,10.900700210298488,0.0,0.0,0.0,0.0,0.0,28.877370514860377,101.30644058366701,56.40368603249486,0.0,0.0,0.0,0.0,0.0
6.51,-0.0994147112926691,-11.38057848469193,0.0,0.0,0.0,0.0,0.0,28.877370514860377,101.31054080334505,56.41038007997263,0.0,0.0,0.0,0.0,0.0
6.52,-0.0994147112926691,0.0,0.0,0.0,0.0,0.0,0.0,28.877370514860377,101.31054080334505,56.41038007997263,0.0,0.0,0.0,0.0,0.0
6.54,0.2986802083583573,19.90474598255086,0.0,0.0,0.0,0.0,0.0,28.857233185088262,101.30575993277226,56.3673021588852,0.0,0.0,0.0,0.0,0.0
6.57,0.09941954901250383,-6.642021978195061,0.0,0.0,0.0,0.0,0.0,28.847164521878586,101.30815290561607,56.406002339308785,0.0,0.0,0.0,0.0,0.0
6.6,-0.05710498310812051,-5.217484404020922,0.0,0.0,0.0,0.0,0.0,28.842130190692842,101.31003268134116,56.40527283457276,0.0,0.0,0.0,0.0,0.0
6.62,-0.05710498310812051,0.0,0.0,0.0,0.0,0.0,0.0,28.842130190692842,101.31003268134116,56.40527283457276,0.0,0.0,0.0,0.0,0.0
6.63,-0.02875206939721542,2.8352913710905696,0.0,0.0,0.0,0.0,0.0,28.832061529159546,101.30969217595171,56.38373424369762,0.0,0.0,0.0,0.0,0.0
6.66,0.26991941813831577,9.95571625118429,0.0,0.0,0.0,0.0,0.0,28.827027198811994,101.3061053257215,56.40308452391021,0.0,0.0,0.0,0.0,0.0
6.72,0.26991941813831577,0.0,0.0,0.0,0.0,0.0,0.0,28.827027198811994,101.3061053257215,56.40308452391021,0.0,0.0,0.0,0.0,0.0
6.82,0.26991941813831577,0.0,0.0,0.0,0.0,0.0,0.0,28.827027198811994,101.3061053257215,56.40308452391021,0.0,0.0,0.0,0.0,0.0
6.86,-0.22798452031341565,-12.447598461293275,0.0,0.0,0.0,0.0,0.0,28.821992868743838,101.31208488522797,56.39566183110791,0.0,0.0,0.0,0.0,0.0
6.86,-0.22798452031341565,-12.447598461293275,0.0,0.0,0.0,0.0,0.0,28.821992868743838,101.31208488522797,56.39566183110791,0.0,0.0,0.0,0.0,0.0
6.89,0.24107402737521322,15.635284922954629,0.0,0.0,0.0,0.0,0.0,29.466389388404785,101.30645173560995,56.50269137471156,0.0,0.0,0.0,0.0,0.0
6.92,0.32550400889168163,2.8143327172155903,0.0,0.0,0.0,0.0,0.0,29.43618319928646,101.30543780230262,56.53180092001084,0.0,0.0,0.0,0.0,0.0
6.92,0.32550400889168163,2.8143327172155903,0.0,0.0,0.0,0.0,0.0,29.43618319928646,101.30543780230262,56.53180092001084,0.0,0.0,0.0,0.0,0.0
6.95,0.0535585159151275,-9.064849765885063,0.0,0.0,0.0,0.0,0.0,29.390873934468253,101.30870366911446,56.49839025157153,0.0,0.0,0.0,0.0,0.0
6.98,0.6071327115431624,18.45247318760101,0.0,0.0,0.0,0.0,0.0,29.335495974868536,101.30205573706698,56.49702667775601,0.0,0.0,0.0,0.0,0.0
7.01,0.1504551515036534,-15.222585334650624,0.0,0.0,0.0,0.0,0.0,29.295221116393805,101.3075400014934,56.46436432138081,0.0,0.0,0.0,0.0,0.0
7.02,0.1504551515036534,0.0,0.0,0.0,0.0,0.0,0.0,29.295221116393805,101.3075400014934,56.46436432138081,0.0,0.0,0.0,0.0,0.0
7.04,-0.007305738316460975,-7.8880444910055365,0.0,0.0,0.0,0.0,0.0,29.249911921983585,101.30943461604302,56.464472423039645,0.0,0.0,0.0,0.0,0.0
7.07,0.5182193053241169,17.51750145468578,0.0,0.0,0.0,0.0,0.0,29.204602750204504,101.30312348391261,56.464582296559655,0.0,0.0,0.0,0.0,0.0
7.1,0.489038678303646,-0.9726875673490495,0.0,0.0,0.0,0.0,0.0,29.17439664825797,101.30347391137204,56.46019096308688,0.0,0.0,0.0,0.0,0.0
7.12,0.489038678303646,0.0,0.0,0.0,0.0,0.0,0.0,29.17439664825797,101.30347391137204,56.46019096308688,0.0,0.0,0.0,0.0,0.0
7.13,0.03272976027398289,-45.630891802967284,0.0,0.0,0.0,0.0,0.0,29.134121861308813,101.30895381077649,56.46103560546709,0.0,0.0,0.0,0.0,0.0
7.16,0.643947614351823,20.37392846926117,0.0,0.0,0.0,0.0,0.0,29.09888143739663,101.30161363546695,56.45591535047281,0.0,0.0,0.0,0.0,0.0
7.19,0.2450861086973133,-13.29538352181688,0.0,0.0,0.0,0.0,0.0,29.078744058450685,101.30640355369034,56.4328995056738,0.0,0.0,0.0,0.0,0.0
7.22,0.1732888800360699,-2.3932409553748304,0.0,0.0,0.0,0.0,0.0,29.043503656052053,101.30726578435758,56.43447945909925,0.0,0.0,0.0,0.0,0.0
7.22,0.1732888800360699,-2.3932409553748304,0.0,0.0,0.0,0.0,0.0,29.043503656052053,101.30726578435758,56.43447945909925,0.0,0.0,0.0,0.0,0.0
7.25,0.08773769240948748,-2.8517062542193905,0.0,0.0,0.0,0.0,0.0,29.033434972167015,101.30829319747654,56.439714157479834,0.0,0.0,0.0,0.0,0.0
7.28,0.35749924172982395,8.992051644011141,0.0,0.0,0.0,0.0,0.0,28.99819458737038,101.30505356852218,56.42120761634801,0.0,0.0,0.0,0.0,0.0
7.31,0.15814019733689233,-6.6453014797645285,0.0,0.0,0.0,0.0,0.0,28.988125908514483,101.30744770939198,56.413051470923854,0.0,0.0,0.0,0.0,0.0
7.32,0.15814019733689233,0.0,0.0,0.0,0.0,0.0,0.0,28.988125908514483,101.30744770939198,56.413051470923854,0.0,0.0,0.0,0.0,0.0
7.34,0.10092338303403836,-2.8608407151427593,0.0,0.0,0.0,0.0,0.0,28.967988554155454,101.30813484551261,56.416825391328786,0.0,0.0,0.0,0.0,0.0
7.37,0.2286103534466133,4.2562323470857955,0.0,0.0,0.0,0.0,0.0,28.942816867493093,101.3066014145826,56.41986937153665,0.0,0.0,0.0,0.0,0.0
7.4,-0.4259572123850175,-21.81891886105418,0.0,0.0,0.0,0.0,0.0,28.932748194783926,101.31446251058236,56.42510410686167,0.0,0.0,0.0,0.0,0.0
7.42,-0.4259572123850175,0.0,0.0,0.0,0.0,0.0,0.0,28.932748194783926,101.31446251058236,56.42510410686167,0.0,0.0,0.0,0.0,0.0
7.43,-0.21275147802870542,21.320573435631662,0.0,0.0,0.0,0.0,0.0,28.91764518781565,101.31190194031481,56.409524392182796,0.0,0.0,0.0,0.0,0.0
7.46,0.25640736307940504,15.638628036936886,0.0,0.0,0.0,0.0,0.0,28.89247351512313,101.30626759449021,56.39248735611376,0.0,0.0,0.0,0.0,0.0
7.49,0.3985488765227452,4.738050448111299,0.0,0.0,0.0,0.0,0.0,28.882404848001897,101.30456060129949,56.3910281650241,0.0,0.0,0.0,0.0,0.0
7.52,0.12819568142887094,-9.011773169796,0.0,0.0,0.0,0.0,0.0,28.877370514860377,101.30780732276466,56.41038007997263,0.0,0.0,0.0,0.0,0.0
7.52,0.12819568142887094,-9.011773169796,0.0,0.0,0.0,0.0,0.0,28.877370514860377,101.30780732276466,56.41038007997263,0.0,0.0,0.0,0.0,0.0
7.55,0.3841465975583569,8.531697204316128,0.0,0.0,0.0,0.0,0.0,28.867301849415526,101.30473355880363,56.42900381062154,0.0,0.0,0.0,0.0,0.0
7.58,0.0,-12.804886585278457,0.0,0.0,0.0,0.0,0.0,28.862267517112194,101.30934687783322,56.381417022336834,0.0,0.0,0.0,0.0,0.0
7.61,0.05669389867317132,1.8897966224390281,0.0,0.0,0.0,0.0,0.0,28.842130190692842,101.30866601497102,56.39857924767473,0.0,0.0,0.0,0.0,0.0
7.62,0.05669389867317132,0.0,0.0,0.0,0.0,0.0,0.0,28.842130190692842,101.30866601497102,56.39857924767473,0.0,0.0,0.0,0.0,0.0
7.64,0.12776876215833233,3.5537431742581265,0.0,0.0,0.0,0.0,0.0,28.837095859786494,101.30781244978367,56.39115654913857,0.0,0.0,0.0,0.0,0.0
7.67,0.312643702920411,6.162498025402571,0.0,0.0,0.0,0.0,0.0,28.832061529159546,101.30559224326717,56.390427243817726,0.0,0.0,0.0,0.0,0.0
7.72,0.312643702920411,0.0,0.0,0.0,0.0,0.0,0.0,28.832061529159546,101.30559224326717,56.390427243817726,0.0,0.0,0.0,0.0,0.0
7.82,0.312643702920411,0.0,0.0,0.0,0.0,0.0,0.0,28.832061529159546,101.30559224326717,56.390427243817726,0.0,0.0,0.0,0.0,0.0
7.87,0.15612097288491333,-3.1304546007099643,0.0,0.0,0.0,0.0,0.0,28.827027198811994,101.30747195887878,56.40977814106431,0.0,0.0,0.0,0.0,0.0
7.87,0.15612097288491333,-3.1304546007099643,0.0,0.0,0.0,0.0,0.0,28.827027198811994,101.30747195887878,56.40977814106431,0.0,0.0,0.0,0.0,0.0
7.9,0.17004948675190756,0.4642837955664705,0.0,0.0,0.0,0.0,0.0,29.47142375423573,101.3073046871724,56.53023564636106,0.0,0.0,0.0,0.0,0.0
7.92,0.17004948675190756,0.0,0.0,0.0,0.0,0.0,0.0,29.47142375423573,101.3073046871724,56.53023564636106,0.0,0.0,0.0,0.0,0.0
7.93,0.39653116654634113,22.64816797944384,0.0,0.0,0.0,0.0,0.0,29.431148835411296,101.3045848320393,56.52436439783758,0.0,0.0,0.0,0.0,0.0
7.96,0.28135172289049604,-3.839314788528138,0.0,0.0,0.0,0.0,0.0,29.390873934468253,101.30596803322338,56.49839025157153,0.0,0.0,0.0,0.0,0.0
7.99,-0.03334514065690186,-10.489895451579843,0.0,0.0,0.0,0.0,0.0,29.34053033343516,101.30974733655178,56.4977596938683,0.0,0.0,0.0,0.0,0.0
8.02,-0.10550058575981236,-2.405181503430401,0.0,0.0,0.0,0.0,0.0,29.305289829336107,101.3106138923023,56.49932985002106,0.0,0.0,0.0,0.0,0.0
8.02,-0.10550058575981236,-2.405181503430401,0.0,0.0,0.0,0.0,0.0,29.305289829336107,101.3106138923023,56.49932985002106,0.0,0.0,0.0,0.0,0.0
8.05,0.6048950156165933,23.679853379212624,0.0,0.0,0.0,0.0,0.0,29.254946275800467,101.30208260908698,56.49200290612135,0.0,0.0,0.0,0.0,0.0
8.08,0.3050849779013076,-9.99366792384307,0.0,0.0,0.0,0.0,0.0,29.219705804949626,101.30568301699593,56.47347740287046,0.0,0.0,0.0,0.0,0.0
8.11,0.10464828253244352,-6.681223178962279,0.0,0.0,0.0,0.0,0.0,29.169362298911437,101.30809011181687,56.47955484696744,0.0,0.0,0.0,0.0,0.0
8.12,0.10464828253244352,0.0,0.0,0.0,0.0,0.0,0.0,29.169362298911437,101.30809011181687,56.47955484696744,0.0,0.0,0.0,0.0,0.0
8.14,0.3032350554926144,9.929338648007874,0.0,0.0,0.0,0.0,0.0,29.139156208699568,101.30570523296895,56.45506927739868,0.0,0.0,0.0,0.0,0.0
8.17,0.5018412133405092,6.620205261596635,0.0,0.0,0.0,0.0,0.0,29.108950128545985,101.30332016678831,56.47077385931766,0.0,0.0,0.0,0.0,0.0
8.2,0.2450861086973133,-8.558503488106714,0.0,0.0,0.0,0.0,0.0,29.078744058450685,101.30640355369034,56.452990234251814,0.0,0.0,0.0,0.0,0.0
8.22,0.2450861086973133,0.0,0.0,0.0,0.0,0.0,0.0,29.078744058450685,101.30640355369034,56.452990234251814,0.0,0.0,0.0,0.0,0.0
8.23,0.21606714220827605,-2.901896648903785,0.0,0.0,0.0,0.0,0.0,29.048537998413668,101.30675204891693,56.44190683292351,0.0,0.0,0.0,0.0,0.0
8.26,0.08773769240948748,-4.277648326626377,0.0,0.0,0.0,0.0,0.0,29.033434972167015,101.30829319747654,56.45980447199327,0.0,0.0,0.0,0.0,0.0
8.29,0.17260806164892561,2.8290123079813316,0.0,0.0,0.0,0.0,0.0,29.003228927217425,101.30727396050236,56.42863379918625,0.0,0.0,0.0,0.0,0.0
8.32,0.15814019733689233,-0.48226214373442455,0.0,0.0,0.0,0.0,0.0,28.988125908514483,101.30744770939198,56.44653008828236,0.0,0.0,0.0,0.0,0.0
8.32,0.15814019733689233,-0.48226214373442455,0.0,0.0,0.0,0.0,0.0,28.988125908514483,101.30744770939198,56.44653008828236,0.0,0.0,0.0,0.0,0.0
8.35,0.485156670013146,10.900549089208688,0.0,0.0,0.0,0.0,0.0,28.973022892326117,101.30352053012565,56.43094650171758,0.0,0.0,0.0,0.0,0.0
8.38,0.42794077204186376,-1.907196599042669,0.0,0.0,0.0,0.0,0.0,28.952885541319848,101.30420763367398,56.4414162409663,0.0,0.0,0.0,0.0,0.0
8.41,0.2286103534466133,-6.6443472865084905,0.0,0.0,0.0,0.0,0.0,28.942816867493093,101.3066014145826,56.426564502318456,0.0,0.0,0.0,0.0,0.0
8.42,0.2286103534466133,0.0,0.0,0.0,0.0,0.0,0.0,28.942816867493093,101.3066014145826,56.426564502318456,0.0,0.0,0.0,0.0,0.0
8.44,-0.2838203660880523,-25.621535976733824,0.0,0.0,0.0,0.0,0.0,28.922679523192347,101.31275546163734,56.43033894196089,0.0,0.0,0.0,0.0,0.0
8.47,-0.07061277218671558,7.106919796710954,0.0,0.0,0.0,0.0,0.0,28.907576517900452,101.31019490397092,56.42814860877246,0.0,0.0,0.0,0.0,0.0
8.5,0.028789035296067356,3.3133935827595016,0.0,0.0,0.0,0.0,0.0,28.89247351512313,101.3090011367274,56.41926388057579,0.0,0.0,0.0,0.0,0.0
8.52,0.028789035296067356,0.0,0.0,0.0,0.0,0.0,0.0,28.89247351512313,101.3090011367274,56.41926388057579,0.0,0.0,0.0,0.0,0.0
8.53,0.5123595149879656,48.35704796919086,0.0,0.0,0.0,0.0,0.0,28.882404848001897,101.30319385351576,56.404415708816956,0.0,0.0,0.0,0.0,0.0
8.56,-0.2559478464863929,-25.610245382477647,0.0,0.0,0.0,0.0,0.0,28.872336181998254,101.31242071826705,56.41634458101643,0.0,0.0,0.0,0.0,0.0
8.59,-0.11380181752190577,4.7382009654830055,0.0,0.0,0.0,0.0,0.0,28.862267517112194,101.31071358689759,56.42157943996234,0.0,0.0,0.0,0.0,0.0
8.62,-0.38412629336148196,-9.010815861319399,0.0,0.0,0.0,0.0,0.0,28.857233185088262,101.31396012311706,56.420849701881224,0.0,0.0,0.0,0.0,0.0
8.62,-0.38412629336148196,-9.010815861319399,0.0,0.0,0.0,0.0,0.0,28.857233185088262,101.31396012311706,56.420849701881224,0.0,0.0,0.0,0.0,0.0
8.65,-0.12817968239823951,8.531553698774426,0.0,0.0,0.0,0.0,0.0,28.847164521878586,101.31088625970337,56.406002339308785,0.0,0.0,0.0,0.0,0.0
8.68,0.19884393531666156,10.900787257163602,0.0,0.0,0.0,0.0,0.0,28.832061529159546,101.30695888670043,56.42389565848441,0.0,0.0,0.0,0.0,0.0
8.72,0.19884393531666156,0.0,0.0,0.0,0.0,0.0,0.0,28.832061529159546,101.30695888670043,56.42389565848441,0.0,0.0,0.0,0.0,0.0
8.82,0.19884393531666156,0.0,0.0,0.0,0.0,0.0,0.0,28.832061529159546,101.30695888670043,56.42389565848441,0.0,0.0,0.0,0.0,0.0
8.88,0.15612097288491333,-0.7120493738624645,0.0,0.0,0.0,0.0,0.0,28.827027198811994,101.30747195887878,56.41647198582397,0.0,0.0,0.0,0.0,0.0
8.88,0.15612097288491333,-0.7120493738624645,0.0,0.0,0.0,0.0,0.0,28.827027198811994,101.30747195887878,56.41647198582397,0.0,0.0,0.0,0.0,0.0
8.91,0.6257018085295096,15.652694521486877,0.0,0.0,0.0,0.0,0.0,29.47142375423573,101.30183274490757,56.51012742094311,0.0,0.0,0.0,0.0,0.0
8.92,0.6257018085295096,0.0,0.0,0.0,0.0,0.0,0.0,29.47142375423573,101.30183274490757,56.51012742094311,0.0,0.0,0.0,0.0,0.0
8.94,0.2544771626868947,-18.56123229213114,0.0,0.0,0.0,0.0,0.0,29.441217563441022,101.30629077464096,56.5191294354693,0.0,0.0,0.0,0.0,0.0
8.97,-0.01747229703063846,-9.064981990584094,0.0,0.0,0.0,0.0,0.0,29.395908296108246,101.30955671135654,56.51922882276929,0.0,0.0,0.0,0.0,0.0
9.0,0.3511727996347802,12.28816988884755,0.0,0.0,0.0,0.0,0.0,29.345564692281187,101.30512954327065,56.518596694530785,0.0,0.0,0.0,0.0,0.0
9.02,0.3511727996347802,0.0,0.0,0.0,0.0,0.0,0.0,29.345564692281187,101.30512954327065,56.518596694530785,0.0,0.0,0.0,0.0,0.0
9.03,0.23614113787055135,-11.50316617642313,0.0,0.0,0.0,0.0,0.0,29.305289829336107,101.30651097573214,56.49932985002106,0.0,0.0,0.0,0.0,0.0
9.06,0.19222686808093248,-1.4638089929872404,0.0,0.0,0.0,0.0,0.0,29.259980629896745,101.30703835280076,56.49273544870192,0.0,0.0,0.0,0.0,0.0
9.09,0.2622620933812847,2.3345075100117905,0.0,0.0,0.0,0.0,0.0,29.21467145308852,101.30619728392513,56.48614378045339,0.0,0.0,0.0,0.0,0.0
9.12,-0.10849606284516478,-12.35860520754858,0.0,0.0,0.0,0.0,0.0,29.184465347789228,101.31064986681886,56.47505187719847,0.0,0.0,0.0,0.0,0.0
9.12,-0.10849606284516478,-12.35860520754858,0.0,0.0,0.0,0.0,0.0,29.184465347789228,101.31064986681886,56.47505187719847,0.0,0.0,0.0,0.0,0.0
9.15,0.11833094382421416,7.560900222312345,0.0,0.0,0.0,0.0,0.0,29.144190556369722,101.30792579181417,56.462498839647,0.0,0.0,0.0,0.0,0.0
9.18,0.3879910567628009,8.988670431286415,0.0,0.0,0.0,0.0,0.0,29.108950128545985,101.30468739052658,56.46407587161508,0.0,0.0,0.0,0.0,0.0
9.21,0.33066402640757664,-1.9109010118407357,0.0,0.0,0.0,0.0,0.0,29.088812747364862,101.30537583508394,56.46115022119055,0.0,0.0,0.0,0.0,0.0
9.22,0.33066402640757664,0.0,0.0,0.0,0.0,0.0,0.0,29.088812747364862,101.30537583508394,56.46115022119055,0.0,0.0,0.0,0.0,0.0
9.24,0.41546946024340947,4.240271691791732,0.0,0.0,0.0,0.0,0.0,29.058606683975086,101.30435740168518,56.46346008867187,0.0,0.0,0.0,0.0,0.0
9.27,0.20157153343742462,-7.12993089353298,0.0,0.0,0.0,0.0,0.0,29.033434972167015,101.30692613027207,56.45310747292983,0.0,0.0,0.0,0.0,0.0
9.3,0.25814584209230773,1.8858102884960322,0.0,0.0,0.0,0.0,0.0,29.0132976077497,101.30624671676235,56.4501838523321,0.0,0.0,0.0,0.0,0.0
9.32,0.25814584209230773,0.0,0.0,0.0,0.0,0.0,0.0,29.0132976077497,101.30624671676235,56.4501838523321,0.0,0.0,0.0,0.0,0.0
9.33,0.3147321522078239,5.658631011551739,0.0,0.0,0.0,0.0,0.0,28.993160247802734,101.30556716281497,56.44726077337352,0.0,0.0,0.0,0.0,0.0
9.36,0.07261755701801653,-8.070486506327084,0.0,0.0,0.0,0.0,0.0,28.978057230776177,101.30847478116874,56.44506881969438,0.0,0.0,0.0,0.0,0.0
9.39,0.2002977628035374,4.256006859517201,0.0,0.0,0.0,0.0,0.0,28.952885541319848,101.30694142731062,56.44811218616901,0.0,0.0,0.0,0.0,0.0
9.42,-0.2694018694894962,-15.65665440976812,0.0,0.0,0.0,0.0,0.0,28.93778253099881,101.31258229827326,56.45261682322011,0.0,0.0,0.0,0.0,0.0
9.42,-0.2694018694894962,-15.65665440976812,0.0,0.0,0.0,0.0,0.0,28.93778253099881,101.31258229827326,56.45261682322011,0.0,0.0,0.0,0.0,0.0
9.45,0.3990610435045916,22.2820970998034,0.0,0.0,0.0,0.0,0.0,28.922679523192347,101.30455445067155,56.45042559252583,0.0,0.0,0.0,0.0,0.0
9.48,0.4984499435699419,3.3129633355115504,0.0,0.0,0.0,0.0,0.0,28.907576517900452,101.30336089224794,56.43484373390375,0.0,0.0,0.0,0.0,0.0
9.51,-0.26989545843870477,-25.611513400288768,0.0,0.0,0.0,0.0,0.0,28.89750784910284,101.3125882261774,56.41329925191021,0.0,0.0,0.0,0.0,0.0
9.52,-0.26989545843870477,0.0,0.0,0.0,0.0,0.0,0.0,28.89750784910284,101.3125882261774,56.41329925191021,0.0,0.0,0.0,0.0,0.0
9.54,-0.013947324716803156,12.797406686095353,0.0,0.0,0.0,0.0,0.0,28.887439181422813,101.30951437817882,56.43861859044519,0.0,0.0,0.0,0.0,0.0
9.57,0.2703399267593798,9.476241715872407,0.0,0.0,0.0,0.0,0.0,28.867301849415526,101.30610027575909,56.415614840899934,0.0,0.0,0.0,0.0,0.0
9.6,0.4552190393758171,6.1626370872147085,0.0,0.0,0.0,0.0,0.0,28.862267517112194,101.30388004952567,56.41488513469741,0.0,0.0,0.0,0.0,0.0
9.62,0.4552190393758171,0.0,0.0,0.0,0.0,0.0,0.0,28.862267517112194,101.30388004952567,56.41488513469741,0.0,0.0,0.0,0.0,0.0
9.63,0.14214697694698852,-31.307206242877964,0.0,0.0,0.0,0.0,0.0,28.852198853343726,101.30763977701768,56.43350902787719,0.0,0.0,0.0,0.0,0.0
9.66,-0.24197753287894752,-12.804150327531474,0.0,0.0,0.0,0.0,0.0,28.847164521878586,101.3122529379395,56.41269621959657,0.0,0.0,0.0,0.0,0.0
9.69,0.15612097288491333,13.269950192128977,0.0,0.0,0.0,0.0,0.0,28.827027198811994,101.30747195887878,56.41647198582397,0.0,0.0,0.0,0.0,0.0
9.72,0.15612097288491333,0.0,0.0,0.0,0.0,0.0,0.0,28.827027198811994,101.30747195887878,56.41647198582397,0.0,0.0,0.0,0.0,0.0
9.82,0.15612097288491333,0.0,0.0,0.0,0.0,0.0,0.0,28.827027198811994,101.30747195887878,56.41647198582397,0.0,0.0,0.0,0.0,0.0
9.89,-0.0714723872217804,-3.2513337158098974,0.0,0.0,0.0,0.0,0.0,28.827027198811994,101.31020522757801,56.43655488573623,0.0,0.0,0.0,0.0,0.0
9.89,-0.0714723872217804,-3.2513337158098974,0.0,0.0,0.0,0.0,0.0,28.827027198811994,101.31020522757801,56.43655488573623,0.0,0.0,0.0,0.0,0.0
9.92,0.3978732892305725,15.64485588174543,0.0,0.0,0.0,0.0,0.0,29.47142375423573,101.30456871444709,56.543642267270656,0.0,0.0,0.0,0.0,0.0
9.92,0.3978732892305725,15.64485588174543,0.0,0.0,0.0,0.0,0.0,29.47142375423573,101.30456871444709,56.543642267270656,0.0,0.0,0.0,0.0,0.0
9.95,0.2544771626868947,-4.779870884789363,0.0,0.0,0.0,0.0,0.0,29.441217563441022,101.30629077464096,56.525832008022924,0.0,0.0,0.0,0.0,0.0
9.98,0.3670894951097714,3.753744414095748,0.0,0.0,0.0,0.0,0.0,29.400942658027635,101.30493839849119,56.540069871450655,0.0,0.0,0.0,0.0,0.0
10.01,0.5079225544111865,4.69443531004727,0.0,0.0,0.0,0.0,0.0,29.350599051406608,101.30324713653293,56.51262836572716,0.0,0.0,0.0,0.0,0.0
10.02,0.5079225544111865,0.0,0.0,0.0,0.0,0.0,0.0,29.350599051406608,101.30324713653293,56.51262836572716,0.0,0.0,0.0,0.0,0.0
10.04,0.23614113787055135,-13.589070827032048,0.0,0.0,0.0,0.0,0.0,29.305289829336107,101.30651097573214,56.51273165465895,0.0,0.0,0.0,0.0,0.0
10.07,0.34893635427674985,3.7598405468731406,0.0,0.0,0.0,0.0,0.0,29.26501498427242,101.30515640093269,56.50016828539104,0.0,0.0,0.0,0.0,0.0
10.1,0.4899979707339486,4.702053881906725,0.0,0.0,0.0,0.0,0.0,29.21467145308852,101.30346239130206,56.48614378045339,0.0,0.0,0.0,0.0,0.0
10.12,0.4899979707339486,0.0,0.0,0.0,0.0,0.0,0.0,29.21467145308852,101.30346239130206,56.48614378045339,0.0,0.0,0.0,0.0,0.0
10.13,0.3041295271979483,-18.586844353597122,0.0,0.0,0.0,0.0,0.0,29.1794309978839,101.30569449113453,56.47431990699069,0.0,0.0,0.0,0.0,0.0
10.16,0.530945360611762,7.560527780460618,0.0,0.0,0.0,0.0,0.0,29.139156208699568,101.30297065819545,56.48856119406148,0.0,0.0,0.0,0.0,0.0
10.19,0.16029427724592038,-12.355036112194984,0.0,0.0,0.0,0.0,0.0,29.108950128545985,101.30742184038978,56.484170517348446,0.0,0.0,0.0,0.0,0.0
10.22,0.47277407506180147,10.415993260528975,0.0,0.0,0.0,0.0,0.0,29.078744058450685,101.30366923191876,56.46638519104742,0.0,0.0,0.0,0.0,0.0
10.22,0.47277407506180147,10.415993260528975,0.0,0.0,0.0,0.0,0.0,29.078744058450685,101.30366923191876,56.46638519104742,0.0,0.0,0.0,0.0,0.0
10.25,0.14500922744897116,-10.92549492042791,0.0,0.0,0.0,0.0,0.0,29.05357234105468,101.30760540332743,56.46942638785217,0.0,0.0,0.0,0.0,0.0
10.28,0.2443475608994583,3.3112777816829757,0.0,0.0,0.0,0.0,0.0,29.038469313969834,101.30641242306315,56.447141625297505,0.0,0.0,0.0,0.0,0.0
10.31,-0.0833433372175274,-10.923029937232442,0.0,0.0,0.0,0.0,0.0,29.0132976077497,101.31034779267273,56.463577550958924,0.0,0.0,0.0,0.0,0.0
10.32,-0.0833433372175274,0.0,0.0,0.0,0.0,0.0,0.0,29.0132976077497,101.31034779267273,56.463577550958924,0.0,0.0,0.0,0.0,0.0
10.34,0.15814019733689233,12.074176727721245,0.0,0.0,0.0,0.0,0.0,28.988125908514483,101.30744770939198,56.44653008828236,0.0,0.0,0.0,0.0,0.0
10.37,-0.3826666626414643,-18.026895332612273,0.0,0.0,0.0,0.0,0.0,28.978057230776177,101.31394259305385,56.44506881969438,0.0,0.0,0.0,0.0,0.0
10.4,0.24305327015236355,20.857331093126806,0.0,0.0,0.0,0.0,0.0,28.95791987865232,101.3064279664692,56.43545090548858,0.0,0.0,0.0,0.0,0.0
10.42,0.24305327015236355,0.0,0.0,0.0,0.0,0.0,0.0,28.95791987865232,101.3064279664692,56.43545090548858,0.0,0.0,0.0,0.0,0.0
10.43,0.4134962852511692,17.04430150988093,0.0,0.0,0.0,0.0,0.0,28.93778253099881,101.30438109756449,56.42583428764927,0.0,0.0,0.0,0.0,0.0
10.46,0.10036120233689161,-10.437836097142192,0.0,0.0,0.0,0.0,0.0,28.92771385884844,101.30814159694992,56.44446012526074,0.0,0.0,0.0,0.0,0.0
10.49,0.08593956593264673,-0.4807212134748394,0.0,0.0,0.0,0.0,0.0,28.912610852718352,101.30831479187553,56.428878685940106,0.0,0.0,0.0,0.0,0.0
10.52,-0.04228154769492454,-4.274037120919133,0.0,0.0,0.0,0.0,0.0,28.89750784910284,101.3098546586174,56.433383549630754,0.0,0.0,0.0,0.0,0.0
10.52,-0.04228154769492454,-4.274037120919133,0.0,0.0,0.0,0.0,0.0,28.89750784910284,101.3098546586174,56.433383549630754,0.0,0.0,0.0,0.0,0.0
10.55,0.0998599281275625,4.738049194082722,0.0,0.0,0.0,0.0,0.0,28.887439181422813,101.30814761693884,56.43861859044519,0.0,0.0,0.0,0.0,0.0
10.58,0.4268824588439213,10.900751023878858,0.0,0.0,0.0,0.0,0.0,28.872336181998254,101.3042203429526,56.41634458101643,0.0,0.0,0.0,0.0,0.0
10.61,-0.18487498688748882,-20.391914857714106,0.0,0.0,0.0,0.0,0.0,28.867301849415526,101.31156715153095,56.44239369072903,0.0,0.0,0.0,0.0,0.0
10.62,-0.18487498688748882,0.0,0.0,0.0,0.0,0.0,0.0,28.867301849415526,101.31156715153095,56.44239369072903,0.0,0.0,0.0,0.0,0.0
10.64,-0.08545489919890015,4.971004384429098,0.0,0.0,0.0,0.0,0.0,28.852198853343726,101.31037315165712,56.44020388435487,0.0,0.0,0.0,0.0,0.0
10.65,-0.08545489919890015,0.0,0.0,0.0,0.0,0.0,0.0,28.852198853343726,101.31037315165712,56.44020388435487,0.0,0.0,0.0,0.0,0.0
10.67,0.028345450440394604,5.690017481964859,0.0,0.0,0.0,0.0,0.0,28.852198853343726,101.30900646393991,56.42681439899938,0.0,0.0,0.0,0.0,0.0
10.7,0.4264446473914596,13.26997323170245,0.0,0.0,0.0,0.0,0.0,28.832061529159546,101.3042256006288,56.437284617581994,0.0,0.0,0.0,0.0,0.0
10.72,0.4264446473914596,0.0,0.0,0.0,0.0,0.0,0.0,28.832061529159546,101.3042256006288,56.437284617581994,0.0,0.0,0.0,0.0,0.0
10.82,0.4264446473914596,0.0,0.0,0.0,0.0,0.0,0.0,28.832061529159546,101.3042256006288,56.437284617581994,0.0,0.0,0.0,0.0,0.0
10.9,0.312643702920411,-1.4225118058881063,0.0,0.0,0.0,0.0,0.0,28.832061529159546,101.30559224326717,56.437284617581994,0.0,0.0,0.0,0.0,0.0
10.9,0.312643702920411,-1.4225118058881063,0.0,0.0,0.0,0.0,0.0,28.832061529159546,101.30559224326717,56.437284617581994,0.0,0.0,0.0,0.0,0.0
10.92,0.312643702920411,0.0,0.0,0.0,0.0,0.0,0.0,28.832061529159546,101.30559224326717,56.437284617581994,0.0,0.0,0.0,0.0,0.0
10.93,0.36973968589400275,5.709598297359297,0.0,0.0,0.0,0.0,0.0,29.481492486735807,101.30490657218131,56.53170379500575,0.0,0.0,0.0,0.0,0.0
10.96,0.2544771626868947,-3.842084106903456,0.0,0.0,0.0,0.0,0.0,29.441217563441022,101.30629077464096,56.525832008022924,0.0,0.0,0.0,0.0,0.0
10.99,0.02539350647974503,-7.636121873571818,0.0,0.0,0.0,0.0,0.0,29.400942658027635,101.30904191518508,56.54677282511063,0.0,0.0,0.0,0.0,0.0
11.02,0.05235965822331212,0.8988717247855889,0.0,0.0,0.0,0.0,0.0,29.350599051406608,101.30871806670876,56.532733879677124,0.0,0.0,0.0,0.0,0.0
11.02,0.05235965822331212,0.8988717247855889,0.0,0.0,0.0,0.0,0.0,29.350599051406608,101.30871806670876,56.532733879677124,0.0,0.0,0.0,0.0,0.0
11.05,0.23614113787055135,6.126049321574409,0.0,0.0,0.0,0.0,0.0,29.305289829336107,101.30651097573214,56.506030638591334,0.0,0.0,0.0,0.0,0.0
11.08,0.4910182533540375,8.495903849449718,0.0,0.0,0.0,0.0,0.0,29.254946275800467,101.30345013880672,56.49200290612135,0.0,0.0,0.0,0.0,0.0
11.11,0.7177385612845733,7.557343597684687,0.0,0.0,0.0,0.0,0.0,29.21467145308852,101.30072750186226,56.50624326408841,0.0,0.0,0.0,0.0,0.0
11.12,0.7177385612845733,0.0,0.0,0.0,0.0,0.0,0.0,29.21467145308852,101.30072750186226,56.50624326408841,0.0,0.0,0.0,0.0,0.0
11.14,0.645717915906302,-3.601032268913319,0.0,0.0,0.0,0.0,0.0,29.1794309978839,101.30159237636695,56.48101881798461,0.0,0.0,0.0,0.0,0.0
11.17,0.16113420494502928,-16.152790365376102,0.0,0.0,0.0,0.0,0.0,29.149224904319272,101.30741175344353,56.49672422124274,0.0,0.0,0.0,0.0,0.0
11.2,-0.010068162248944024,-5.706745573132565,0.0,0.0,0.0,0.0,0.0,29.129087514197455,101.30946779136875,56.48039879340163,0.0,0.0,0.0,0.0,0.0
11.22,-0.010068162248944024,0.0,0.0,0.0,0.0,0.0,0.0,29.129087514197455,101.30946779136875,56.48039879340163,0.0,0.0,0.0,0.0,0.0
11.23,-0.010867029626668856,-0.07988673777248494,0.0,0.0,0.0,0.0,0.0,29.088812747364862,101.30947738536682,56.46115022119055,0.0,0.0,0.0,0.0,0.0
11.26,0.04567573757012333,1.8847589065597798,0.0,0.0,0.0,0.0,0.0,29.06867537065409,101.30879833679819,56.45822511184933,0.0,0.0,0.0,0.0,0.0
11.29,-0.0971543987614587,-4.76100454438617,0.0,0.0,0.0,0.0,0.0,29.038469313969834,101.31051365789209,56.453838462693014,0.0,0.0,0.0,0.0,0.0
11.32,0.3719779235136089,15.637744075834995,0.0,0.0,0.0,0.0,0.0,29.0132976077497,101.3048796930496,56.4702747416176,0.0,0.0,0.0,0.0,0.0
11.32,0.3719779235136089,15.637744075834995,0.0,0.0,0.0,0.0,0.0,29.0132976077497,101.3048796930496,56.4702747416176,0.0,0.0,0.0,0.0,0.0
11.35,0.08707739581382268,-9.496684256659744,0.0,0.0,0.0,0.0,0.0,28.993160247802734,101.30830112723432,56.46735087221044,0.0,0.0,0.0,0.0,0.0
11.38,0.07261755701801653,-0.48199462652685326,0.0,0.0,0.0,0.0,0.0,28.978057230776177,101.30847478116874,56.465158325782326,0.0,0.0,0.0,0.0,0.0
11.41,0.3568755089367659,9.475265063958513,0.0,0.0,0.0,0.0,0.0,28.95791987865232,101.30506105897702,56.44884270000891,0.0,0.0,0.0,0.0,0.0
11.42,0.3568755089367659,0.0,0.0,0.0,0.0,0.0,0.0,28.95791987865232,101.30506105897702,56.44884270000891,0.0,0.0,0.0,0.0,0.0
11.44,0.2286103534466133,-6.413257774507767,0.0,0.0,0.0,0.0,0.0,28.942816867493093,101.3066014145826,56.426564502318456,0.0,0.0,0.0,0.0,0.0
11.47,-0.04177385996189553,-9.012807113616619,0.0,0.0,0.0,0.0,0.0,28.93778253099881,101.30984856152291,56.45261682322011,0.0,0.0,0.0,0.0,0.0
11.5,-0.21275147802870542,-5.699253935560451,0.0,0.0,0.0,0.0,0.0,28.91764518781565,101.31190194031481,56.43630405378087,0.0,0.0,0.0,0.0,0.0
11.52,-0.21275147802870542,0.0,0.0,0.0,0.0,0.0,0.0,28.91764518781565,101.31190194031481,56.43630405378087,0.0,0.0,0.0,0.0,0.0
11.53,0.11426708899807791,32.70185670267903,0.0,0.0,0.0,0.0,0.0,28.90254218336195,101.30797459608648,56.43411362481557,0.0,0.0,0.0,0.0,0.0
11.56,0.4412887488635431,10.900721995515092,0.0,0.0,0.0,0.0,0.0,28.887439181422813,101.30404733798919,56.43861859044519,0.0,0.0,0.0,0.0,0.0
11.59,-0.35536202145058926,-26.55502567713831,0.0,0.0,0.0,0.0,0.0,28.887439181422813,101.31361466666924,56.43861859044519,0.0,0.0,0.0,0.0,0.0
11.62,0.3841465975583569,24.650287300298732,0.0,0.0,0.0,0.0,0.0,28.867301849415526,101.30473355880363,56.42900381062154,0.0,0.0,0.0,0.0,0.0
11.62,0.3841465975583569,24.650287300298732,0.0,0.0,0.0,0.0,0.0,28.867301849415526,101.30473355880363,56.42900381062154,0.0,0.0,0.0,0.0,0.0
11.65,0.0,-12.804886585278078,0.0,0.0,0.0,0.0,0.0,28.862267517112194,101.30934687783322,56.42157943996234,0.0,0.0,0.0,0.0,0.0
11.68,0.07107333360491963,2.369111120164038,0.0,0.0,0.0,0.0,0.0,28.857233185088262,101.30849332637386,56.44762893574904,0.0,0.0,0.0,0.0,0.0
11.71,0.1704939572922326,3.3140207895769733,0.0,0.0,0.0,0.0,0.0,28.842130190692842,101.30729934939586,56.42535496087974,0.0,0.0,0.0,0.0,0.0
11.72,0.1704939572922326,0.0,0.0,0.0,0.0,0.0,0.0,28.842130190692842,101.30729934939586,56.42535496087974,0.0,0.0,0.0,0.0,0.0
11.82,0.1704939572922326,0.0,0.0,0.0,0.0,0.0,0.0,28.842130190692842,101.30729934939586,56.42535496087974,0.0,0.0,0.0,0.0,0.0
11.91,-0.09982753357577812,-3.0035721207556794,0.0,0.0,0.0,0.0,0.0,28.837095859786494,101.3105457611769,56.44470927010083,0.0,0.0,0.0,0.0,0.0
11.91,-0.09982753357577812,-3.0035721207556794,0.0,0.0,0.0,0.0,0.0,28.837095859786494,101.3105457611769,56.44470927010083,0.0,0.0,0.0,0.0,0.0
11.92,-0.09982753357577812,0.0,0.0,0.0,0.0,0.0,0.0,28.837095859786494,101.3105457611769,56.44470927010083,0.0,0.0,0.0,0.0,0.0
11.94,0.36973968589400275,23.478360973489544,0.0,0.0,0.0,0.0,0.0,29.481492486735807,101.30490657218131,56.55181446432315,0.0,0.0,0.0,0.0,0.0
11.97,0.18345062793690192,-6.209635265236459,0.0,0.0,0.0,0.0,0.0,29.446251927874982,101.3071437490541,56.53997182333443,0.0,0.0,0.0,0.0,0.0
12.0,0.11113045732515925,-2.410672353724807,0.0,0.0,0.0,0.0,0.0,29.4110113827046,101.30801226502048,56.528131984883125,0.0,0.0,0.0,0.0,0.0
12.02,0.11113045732515925,0.0,0.0,0.0,0.0,0.0,0.0,29.4110113827046,101.30801226502048,56.528131984883125,0.0,0.0,0.0,0.0,0.0
12.03,-0.046852107608628124,-15.798256493379075,0.0,0.0,0.0,0.0,0.0,29.365702130459248,101.30990954893815,56.528232059696066,0.0,0.0,0.0,0.0,0.0
12.06,0.3928710578051686,14.657438847126002,0.0,0.0,0.0,0.0,0.0,29.310324186226353,101.30462878640722,56.52016597622603,0.0,0.0,0.0,0.0,0.0
12.09,0.29253273684615944,-3.3446106986337107,0.0,0.0,0.0,0.0,0.0,29.28515240456909,101.30583375866495,56.523202130480485,0.0,0.0,0.0,0.0,0.0
12.12,0.27686594467971504,-0.5222264055481578,0.0,0.0,0.0,0.0,0.0,29.229774509510026,101.30602190368121,56.50844077696776,0.0,0.0,0.0,0.0,0.0
12.12,0.27686594467971504,-0.5222264055481578,0.0,0.0,0.0,0.0,0.0,29.229774509510026,101.30602190368121,56.50844077696776,0.0,0.0,0.0,0.0,0.0
12.15,0.5036243640158478,7.558613977870804,0.0,0.0,0.0,0.0,0.0,29.18949969797395,101.30329875309444,56.50258141806917,0.0,0.0,0.0,0.0,0.0
12.18,0.43165277998521323,-2.399052801021202,0.0,0.0,0.0,0.0,0.0,29.15425925254822,101.30416305619693,56.48405795253931,0.0,0.0,0.0,0.0,0.0
12.21,0.21763213718992147,-7.134021426509455,0.0,0.0,0.0,0.0,0.0,29.129087514197455,101.30673325451914,56.49379643397791,0.0,0.0,0.0,0.0,0.0
12.22,0.21763213718992147,0.0,0.0,0.0,0.0,0.0,0.0,29.129087514197455,101.30673325451914,56.49379643397791,0.0,0.0,0.0,0.0,0.0
12.24,0.07471006528738555,-7.146103595126949,0.0,0.0,0.0,0.0,0.0,29.09888143739663,101.30844965139278,56.502803527027275,0.0,0.0,0.0,0.0,0.0
12.27,0.34441260268716745,8.99008457999292,0.0,0.0,0.0,0.0,0.0,29.06364102717489,101.30521072706685,56.48428486216576,0.0,0.0,0.0,0.0,0.0
12.3,0.0594535704020438,-9.498634409503762,0.0,0.0,0.0,0.0,0.0,29.043503656052053,101.30863287291034,56.46796397554573,0.0,0.0,0.0,0.0,0.0
12.32,0.0594535704020438,0.0,0.0,0.0,0.0,0.0,0.0,29.043503656052053,101.30863287291034,56.46796397554573,0.0,0.0,0.0,0.0,0.0
12.33,0.22985718751030837,17.04036171082682,0.0,0.0,0.0,0.0,0.0,29.023366289399565,101.30658644107294,56.491830212105995,0.0,0.0,0.0,0.0,0.0
12.36,0.35749924172982395,4.2547351406506095,0.0,0.0,0.0,0.0,0.0,28.99819458737038,101.30505356852218,56.481476457555345,0.0,0.0,0.0,0.0,0.0
12.39,0.04431473076302428,-10.439483698892927,0.0,0.0,0.0,0.0,0.0,28.988125908514483,101.30881468172298,56.4733170784149,0.0,0.0,0.0,0.0,0.0
12.42,0.3568755089367659,10.418692605791609,0.0,0.0,0.0,0.0,0.0,28.95791987865232,101.30506105897702,56.45553893863312,0.0,0.0,0.0,0.0,0.0
12.42,0.3568755089367659,10.418692605791609,0.0,0.0,0.0,0.0,0.0,28.95791987865232,101.30506105897702,56.45553893863312,0.0,0.0,0.0,0.0,0.0
12.45,0.31411867877003896,-1.4252276722242614,0.0,0.0,0.0,0.0,0.0,28.952885541319848,101.3055745300947,56.46150475930594,0.0,0.0,0.0,0.0,0.0
12.48,-0.2694018694894962,-19.450684941983766,0.0,0.0,0.0,0.0,0.0,28.93778253099881,101.31258229827326,56.44592084795654,0.0,0.0,0.0,0.0,0.0
12.51,0.0576150416193133,10.900563703627215,0.0,0.0,0.0,0.0,0.0,28.922679523192347,101.30865495257629,56.45042559252583,0.0,0.0,0.0,0.0,0.0
12.52,0.0576150416193133,0.0,0.0,0.0,0.0,0.0,0.0,28.922679523192347,101.30865495257629,56.45042559252583,0.0,0.0,0.0,0.0,0.0
12.54,0.19975225456702606,7.10686064738579,0.0,0.0,0.0,0.0,0.0,28.912610852718352,101.30694797845965,56.46905324545104,0.0,0.0,0.0,0.0,0.0
12.57,0.07152717318462232,-4.274169379413296,0.0,0.0,0.0,0.0,0.0,28.89750784910284,101.30848787603003,56.453469895658245,0.0,0.0,0.0,0.0,0.0
12.6,0.0998599281275625,0.944425164764693,0.0,0.0,0.0,0.0,0.0,28.887439181422813,101.30814761693884,56.45870522439121,0.0,0.0,0.0,0.0,0.0
12.62,0.0998599281275625,0.0,0.0,0.0,0.0,0.0,0.0,28.887439181422813,101.30814761693884,56.45870522439121,0.0,0.0,0.0,0.0,0.0
12.63,0.12819568142887094,2.8335753301304014,0.0,0.0,0.0,0.0,0.0,28.877370514860377,101.30780732276466,56.45054914431753,0.0,0.0,0.0,0.0,0.0
12.66,0.19926764920094264,2.3690655924024404,0.0,0.0,0.0,0.0,0.0,28.872336181998254,101.30695379821069,56.469906448589704,0.0,0.0,0.0,0.0,0.0
12.69,-0.18487498688748882,-12.804754536281322,0.0,0.0,0.0,0.0,0.0,28.867301849415526,101.31156715153095,56.46248021786381,0.0,0.0,0.0,0.0,0.0
12.72,0.18487618252091997,12.325038980279826,0.0,0.0,0.0,0.0,0.0,28.857233185088262,101.30712662917557,56.44762893574904,0.0,0.0,0.0,0.0,0.0
12.72,0.18487618252091997,12.325038980279826,0.0,0.0,0.0,0.0,0.0,28.857233185088262,101.30712662917557,56.44762893574904,0.0,0.0,0.0,0.0,0.0
12.82,0.18487618252091997,0.0,0.0,0.0,0.0,0.0,0.0,28.857233185088262,101.30712662917557,56.44762893574904,0.0,0.0,0.0,0.0,0.0
12.92,0.2415686752697377,0.5669249274881791,0.0,0.0,0.0,0.0,0.0,28.837095859786494,101.30644579527947,56.464795295915785,0.0,0.0,0.0,0.0,0.0
12.92,0.2415686752697377,0.5669249274881791,0.0,0.0,0.0,0.0,0.0,28.837095859786494,101.30644579527947,56.464795295915785,0.0,0.0,0.0,0.0,0.0
12.92,0.2415686752697377,0.5669249274881791,0.0,0.0,0.0,0.0,0.0,28.837095859786494,101.30644579527947,56.464795295915785,0.0,0.0,0.0,0.0,0.0
12.95,0.49842138141371173,8.561756871465985,0.0,0.0,0.0,0.0,0.0,29.496595587581396,101.3033612352484,56.56742618175885,0.0,0.0,0.0,0.0,0.0
12.98,0.15530583055092806,-11.437185028759023,0.0,0.0,0.0,0.0,0.0,29.45632065758109,101.30748174817482,56.55484703396902,0.0,0.0,0.0,0.0,0.0
13.01,0.4957095136819467,11.346789437700863,0.0,0.0,0.0,0.0,0.0,29.416045745462178,101.30339380183848,56.54227132599513,0.0,0.0,0.0,0.0,0.0
13.02,0.4957095136819467,0.0,0.0,0.0,0.0,0.0,0.0,29.416045745462178,101.30339380183848,56.54227132599513,0.0,0.0,0.0,0.0,0.0
13.04,-0.07502683698987767,-28.536817533591826,0.0,0.0,0.0,0.0,0.0,29.37577085122466,101.3102479150011,56.54310407759895,0.0,0.0,0.0,0.0,0.0
13.07,0.3218342469663993,13.228702798542063,0.0,0.0,0.0,0.0,0.0,29.315358543395995,101.30548187289651,56.554409378574135,0.0,0.0,0.0,0.0,0.0
13.1,0.13581583773291217,-6.2006136411163695,0.0,0.0,0.0,0.0,0.0,29.280118049075828,101.30771580974591,56.54257394293933,0.0,0.0,0.0,0.0,0.0
13.12,0.13581583773291217,0.0,0.0,0.0,0.0,0.0,0.0,29.280118049075828,101.30771580974591,56.54257394293933,0.0,0.0,0.0,0.0,0.0
13.13,0.3907360873700838,25.492024963713177,0.0,0.0,0.0,0.0,0.0,29.229774509510026,101.30465442534557,56.53524406556243,0.0,0.0,0.0,0.0,0.0
13.16,0.09098835570331643,-9.991591055559125,0.0,0.0,0.0,0.0,0.0,29.194534048438072,101.30825415900854,56.52341445929231,0.0,0.0,0.0,0.0,0.0
13.19,0.17569701898970225,2.823622109546254,0.0,0.0,0.0,0.0,0.0,29.1643279498443,101.3072368643253,56.525720274655576,0.0,0.0,0.0,0.0,0.0
13.22,0.21763213718992147,1.3978372733405877,0.0,0.0,0.0,0.0,0.0,29.129087514197455,101.30673325451914,56.52059444557831,0.0,0.0,0.0,0.0,0.0
13.22,0.21763213718992147,1.3978372733405877,0.0,0.0,0.0,0.0,0.0,29.129087514197455,101.30673325451914,56.52059444557831,0.0,0.0,0.0,0.0,0.0
13.25,0.27414207807608837,1.8836646962056034,0.0,0.0,0.0,0.0,0.0,29.108950128545985,101.30605461506039,56.49756808554676,0.0,0.0,0.0,0.0,0.0
13.28,-0.09643700783583453,-12.35263619706436,0.0,0.0,0.0,0.0,0.0,29.078744058450685,101.31050504231408,56.51327470761662,0.0,0.0,0.0,0.0,0.0
13.31,0.30162900348706945,13.268867044096297,0.0,0.0,0.0,0.0,0.0,29.058606683975086,101.30572452027184,56.49695014467388,0.0,0.0,0.0,0.0,0.0
13.32,0.30162900348706945,0.0,0.0,0.0,0.0,0.0,0.0,29.058606683975086,101.30572452027184,56.49695014467388,0.0,0.0,0.0,0.0,0.0
13.34,0.6141391324168921,15.625506446491466,0.0,0.0,0.0,0.0,0.0,29.028400630643592,101.30197159846897,56.4992598280064,0.0,0.0,0.0,0.0,0.0
13.37,0.5568718702578335,-1.9089087386353287,0.0,0.0,0.0,0.0,0.0,29.008263267343864,101.30265931033533,56.50303276086345,0.0,0.0,0.0,0.0,0.0
13.4,0.12984183942441052,-14.234334361113559,0.0,0.0,0.0,0.0,0.0,28.99819458737038,101.3077875534942,56.49487203661545,0.0,0.0,0.0,0.0,0.0
13.42,0.12984183942441052,0.0,0.0,0.0,0.0,0.0,0.0,28.99819458737038,101.3077875534942,56.49487203661545,0.0,0.0,0.0,0.0,0.0
13.43,0.3713304625880198,24.148862316361445,0.0,0.0,0.0,0.0,0.0,28.973022892326117,101.30488746844664,56.497914277045545,0.0,0.0,0.0,0.0,0.0
13.46,0.31411867877003896,-1.9070594605992899,0.0,0.0,0.0,0.0,0.0,28.952885541319848,101.3055745300947,56.488292636505776,0.0,0.0,0.0,0.0,0.0
13.49,-0.07009162085397147,-12.807009987467287,0.0,0.0,0.0,0.0,0.0,28.947851204266772,101.31018864516776,56.48086451668679,0.0,0.0,0.0,0.0,0.0
13.52,-0.013453099973208538,1.8879506960254713,0.0,0.0,0.0,0.0,0.0,28.92771385884844,101.30950844278468,56.48463860060311,0.0,0.0,0.0,0.0,0.0
13.52,-0.013453099973208538,1.8879506960254713,0.0,0.0,0.0,0.0,0.0,28.92771385884844,101.30950844278468,56.48463860060311,0.0,0.0,0.0,0.0,0.0
13.55,0.5128787318637273,17.544394394563863,0.0,0.0,0.0,0.0,0.0,28.922679523192347,101.30318761829355,56.49730240928348,0.0,0.0,0.0,0.0,0.0
13.58,0.38463504615739885,-4.274789523544374,0.0,0.0,0.0,0.0,0.0,28.907576517900452,101.30472769300235,56.49511010151792,0.0,0.0,0.0,0.0,0.0
13.61,0.5267738274379596,4.737959376018794,0.0,0.0,0.0,0.0,0.0,28.89750784910284,101.30302075363134,56.493648732634135,0.0,0.0,0.0,0.0,0.0
13.62,0.5267738274379596,0.0,0.0,0.0,0.0,0.0,0.0,28.89750784910284,101.30302075363134,56.493648732634135,0.0,0.0,0.0,0.0,0.0
13.64,0.17093113077987443,-17.79213483290306,0.0,0.0,0.0,0.0,0.0,28.882404848001897,101.30729409925199,56.51154883256158,0.0,0.0,0.0,0.0,0.0
13.67,0.01438989659015677,-5.218041139657367,0.0,0.0,0.0,0.0,0.0,28.877370514860377,101.30917406265735,56.497423408256125,0.0,0.0,0.0,0.0,0.0
13.7,0.08546200987480601,2.369070442821692,0.0,0.0,0.0,0.0,0.0,28.872336181998254,101.30832052703222,56.50339001267149,0.0,0.0,0.0,0.0,0.0
13.72,0.08546200987480601,0.0,0.0,0.0,0.0,0.0,0.0,28.872336181998254,101.30832052703222,56.50339001267149,0.0,0.0,0.0,0.0,0.0
13.73,0.22760716577367113,14.214515589886815,0.0,0.0,0.0,0.0,0.0,28.862267517112194,101.30661346208949,56.48853501048013,0.0,0.0,0.0,0.0,0.0
13.82,0.22760716577367113,0.0,0.0,0.0,0.0,0.0,0.0,28.862267517112194,101.30661346208949,56.48853501048013,0.0,0.0,0.0,0.0,0.0
13.92,0.22760716577367113,0.0,0.0,0.0,0.0,0.0,0.0,28.862267517112194,101.30661346208949,56.48853501048013,0.0,0.0,0.0,0.0,0.0
13.93,0.07107333360491963,-15.653383216875483,0.0,0.0,0.0,0.0,0.0,28.857233185088262,101.30849332637386,56.48780461451303,0.0,0.0,0.0,0.0,0.0
13.93,0.07107333360491963,-15.653383216875483,0.0,0.0,0.0,0.0,0.0,28.857233185088262,101.30849332637386,56.48780461451303,0.0,0.0,0.0,0.0,0.0
13.96,0.15667111270910472,2.8532593034727283,0.0,0.0,0.0,0.0,0.0,29.496595587581396,101.30746535208014,56.62777635200461,0.0,0.0,0.0,0.0,0.0
13.99,0.5828110632695693,14.204665018682457,0.0,0.0,0.0,0.0,0.0,29.466389388404785,101.3023478109378,56.60995420212038,0.0,0.0,0.0,0.0,0.0
14.02,0.12584631647982514,-15.232158226325131,0.0,0.0,0.0,0.0,0.0,29.426114471815527,101.30783553709159,56.6174877668604,0.0,0.0,0.0,0.0,0.0
14.02,0.12584631647982514,-15.232158226325131,0.0,0.0,0.0,0.0,0.0,29.426114471815527,101.30783553709159,56.6174877668604,0.0,0.0,0.0,0.0,0.0
14.05,0.19562107571825305,2.325825307947509,0.0,0.0,0.0,0.0,0.0,29.380805212026463,101.30699759086244,56.59746746376127,0.0,0.0,0.0,0.0,0.0
14.08,0.29364742951879297,3.267545126684734,0.0,0.0,0.0,0.0,0.0,29.325427258573473,101.30582037215288,56.59609701206324,0.0,0.0,0.0,0.0,0.0
14.11,0.7480597778165532,15.14707827659233,0.0,0.0,0.0,0.0,0.0,29.28515240456909,101.30036338518168,56.596930422082906,0.0,0.0,0.0,0.0,0.0
14.12,0.7480597778165532,0.0,0.0,0.0,0.0,0.0,0.0,29.28515240456909,101.30036338518168,56.596930422082906,0.0,0.0,0.0,0.0,0.0
14.14,0.13477948145568797,-30.664014818041192,0.0,0.0,0.0,0.0,0.0,29.23984321518801,101.30772825569294,56.597031667585306,0.0,0.0,0.0,0.0,0.0
14.17,0.10557614138653637,-0.9734446689717406,0.0,0.0,0.0,0.0,0.0,29.209637101506814,101.30807896881919,56.58592844677702,0.0,0.0,0.0,0.0,0.0
14.2,0.033599856732676736,-2.3992094884620387,0.0,0.0,0.0,0.0,0.0,29.17439664825797,101.30894336139647,56.56069070301473,0.0,0.0,0.0,0.0,0.0
14.22,0.033599856732676736,0.0,0.0,0.0,0.0,0.0,0.0,29.17439664825797,101.30894336139647,56.56069070301473,0.0,0.0,0.0,0.0,0.0
14.23,0.34603918400442524,31.243932727175515,0.0,0.0,0.0,0.0,0.0,29.144190556369722,101.3051911933048,56.58310164377345,0.0,0.0,0.0,0.0,0.0
14.26,0.45904424756056494,3.766835451871404,0.0,0.0,0.0,0.0,0.0,29.10391578283161,101.30383411274826,56.58394181430317,0.0,0.0,0.0,0.0,0.0
14.29,0.21681916330143491,-8.074169475304506,0.0,0.0,0.0,0.0,0.0,29.088812747364862,101.30674301771602,56.575042475583814,0.0,0.0,0.0,0.0,0.0
14.32,0.1312438921473158,-2.852509038470529,0.0,0.0,0.0,0.0,0.0,29.078744058450685,101.3077707157694,56.58027907292796,0.0,0.0,0.0,0.0,0.0
14.32,0.1312438921473158,-2.852509038470529,0.0,0.0,0.0,0.0,0.0,29.078744058450685,101.3077707157694,56.58027907292796,0.0,0.0,0.0,0.0,0.0
14.35,0.2443475608994583,3.770122291738164,0.0,0.0,0.0,0.0,0.0,29.038469313969834,101.30641242306315,56.54761807980204,0.0,0.0,0.0,0.0,0.0
14.38,0.6851984530168831,14.695029737246935,0.0,0.0,0.0,0.0,0.0,29.023366289399565,101.30111826560157,56.53872261950832,0.0,0.0,0.0,0.0,0.0
14.41,0.35749924172982395,-10.923307042902204,0.0,0.0,0.0,0.0,0.0,28.99819458737038,101.30505356852218,56.5551634069491,0.0,0.0,0.0,0.0,0.0
14.42,0.35749924172982395,0.0,0.0,0.0,0.0,0.0,0.0,28.99819458737038,101.30505356852218,56.5551634069491,0.0,0.0,0.0,0.0,0.0
14.44,-0.09781085318723459,-22.765504745853413,0.0,0.0,0.0,0.0,0.0,28.99819458737038,101.31052154164753,56.57526462659843,0.0,0.0,0.0,0.0,0.0
14.47,0.18644155519742522,9.475080279488301,0.0,0.0,0.0,0.0,0.0,28.978057230776177,101.30710783018569,56.56563657837205,0.0,0.0,0.0,0.0,0.0
14.5,0.4562504260436695,8.993629028208334,0.0,0.0,0.0,0.0,0.0,28.942816867493093,101.3038676636413,56.520320229104826,0.0,0.0,0.0,0.0,0.0
14.52,0.4562504260436695,0.0,0.0,0.0,0.0,0.0,0.0,28.942816867493093,101.3038676636413,56.520320229104826,0.0,0.0,0.0,0.0,0.0
14.53,0.15754403377826298,-29.87063922654129,0.0,0.0,0.0,0.0,0.0,28.947851204266772,101.30745486890281,56.54784720600884,0.0,0.0,0.0,0.0,0.0
14.56,0.327993338454724,5.681643489215152,0.0,0.0,0.0,0.0,0.0,28.92771385884844,101.30540790766592,56.55162093280154,0.0,0.0,0.0,0.0,0.0
14.59,0.0576150416193133,-9.012609894513883,0.0,0.0,0.0,0.0,0.0,28.922679523192347,101.30865495257629,56.53749141370825,0.0,0.0,0.0,0.0,0.0
14.62,-0.11335182083556994,-5.698895415162896,0.0,0.0,0.0,0.0,0.0,28.90254218336195,101.31070818260862,56.541265525855295,0.0,0.0,0.0,0.0,0.0
14.62,-0.11335182083556994,-5.698895415162896,0.0,0.0,0.0,0.0,0.0,28.90254218336195,101.31070818260862,56.541265525855295,0.0,0.0,0.0,0.0,0.0
14.65,0.29914814610667806,13.749998898074413,0.0,0.0,0.0,0.0,0.0,28.89750784910284,101.30575431324057,56.540534397768965,0.0,0.0,0.0,0.0,0.0
14.68,0.0998599281275625,-6.642940599303993,0.0,0.0,0.0,0.0,0.0,28.887439181422813,101.30814761693884,56.52567546435357,0.0,0.0,0.0,0.0,0.0
14.71,-0.0994147112926691,-6.642487980674135,0.0,0.0,0.0,0.0,0.0,28.877370514860377,101.31054080334505,56.53091185318124,0.0,0.0,0.0,0.0,0.0
14.72,-0.0994147112926691,0.0,0.0,0.0,0.0,0.0,0.0,28.877370514860377,101.31054080334505,56.53091185318124,0.0,0.0,0.0,0.0,0.0
14.74,0.08546200987480601,9.243836058373953,0.0,0.0,0.0,0.0,0.0,28.872336181998254,101.30832052703222,56.543577800215786,0.0,0.0,0.0,0.0,0.0
14.82,0.08546200987480601,0.0,0.0,0.0,0.0,0.0,0.0,28.872336181998254,101.30832052703222,56.543577800215786,0.0,0.0,0.0,0.0,0.0
14.92,0.08546200987480601,0.0,0.0,0.0,0.0,0.0,0.0,28.872336181998254,101.30832052703222,56.543577800215786,0.0,0.0,0.0,0.0,0.0
14.94,-0.07107302385300551,-7.826751686390743,0.0,0.0,0.0,0.0,0.0,28.867301849415526,101.31020043139546,56.52945010208381,0.0,0.0,0.0,0.0,0.0
14.94,-0.07107302385300551,-7.826751686390743,0.0,0.0,0.0,0.0,0.0,28.867301849415526,101.31020043139546,56.52945010208381,0.0,0.0,0.0,0.0,0.0
14.97,0.5842180884711501,21.843037077471024,0.0,0.0,0.0,0.0,0.0,29.50666432287544,101.30233091423146,56.65607542948437,0.0,0.0,0.0,0.0,0.0
15.0,0.7396178370554829,5.179991619477871,0.0,0.0,0.0,0.0,0.0,29.47142375423573,101.30046476133246,56.65763527971538,0.0,0.0,0.0,0.0,0.0
15.02,0.7396178370554829,0.0,0.0,0.0,0.0,0.0,0.0,29.47142375423573,101.30046476133246,56.65763527971538,0.0,0.0,0.0,0.0,0.0
15.03,0.32550400889168163,-41.41138281638101,0.0,0.0,0.0,0.0,0.0,29.43618319928646,101.30543780230262,56.6591960831764,0.0,0.0,0.0,0.0,0.0
15.06,0.3523825560788796,0.8959515729065646,0.0,0.0,0.0,0.0,0.0,29.38583957310766,101.30511501520536,56.63843393669738,0.0,0.0,0.0,0.0,0.0
15.09,0.15157627663345385,-6.693542648181,0.0,0.0,0.0,0.0,0.0,29.335495974868536,101.30752653754938,56.61767871605784,0.0,0.0,0.0,0.0,0.0
15.12,0.036576046530925055,-3.8333410034177082,0.0,0.0,0.0,0.0,0.0,29.295221116393805,101.30890761900014,56.61180629190068,0.0,0.0,0.0,0.0,0.0
15.12,0.036576046530925055,-3.8333410034177082,0.0,0.0,0.0,0.0,0.0,29.295221116393805,101.30890761900014,56.61180629190068,0.0,0.0,0.0,0.0,0.0
15.15,0.3771426695386204,11.352220766922748,0.0,0.0,0.0,0.0,0.0,29.254946275800467,101.30481766932239,56.61934424865072,0.0,0.0,0.0,0.0,0.0
15.18,-0.0082875279873873,-12.847673250867198,0.0,0.0,0.0,0.0,0.0,29.209637101506814,101.30944640684353,56.61274160053472,0.0,0.0,0.0,0.0,0.0
15.21,0.7595830685281302,25.59568655051628,0.0,0.0,0.0,0.0,0.0,29.1794309978839,101.30022500636919,56.59493511634579,0.0,0.0,0.0,0.0,0.0
15.22,0.7595830685281302,0.0,0.0,0.0,0.0,0.0,0.0,29.1794309978839,101.30022500636919,56.59493511634579,0.0,0.0,0.0,0.0,0.0
15.24,0.04728052831737384,-35.61512701053858,0.0,0.0,0.0,0.0,0.0,29.149224904319272,101.30877906416839,56.583834498508566,0.0,0.0,0.0,0.0,0.0
15.27,0.5163886605315471,15.636937740472774,0.0,0.0,0.0,0.0,0.0,29.124053167365492,101.30314546792832,56.59357489810431,0.0,0.0,0.0,0.0,0.0
15.3,0.33066402640757664,-6.190821137465447,0.0,0.0,0.0,0.0,0.0,29.088812747364862,101.30537583508394,56.58174406787785,0.0,0.0,0.0,0.0,0.0
15.32,0.33066402640757664,0.0,0.0,0.0,0.0,0.0,0.0,29.088812747364862,101.30537583508394,56.58174406787785,0.0,0.0,0.0,0.0,0.0
15.33,0.2733560554783554,-5.730797092922247,0.0,0.0,0.0,0.0,0.0,29.06867537065409,101.30606405454158,56.565411783582164,0.0,0.0,0.0,0.0,0.0
15.36,0.3581839026166056,2.8275949046084,0.0,0.0,0.0,0.0,0.0,29.038469313969834,101.30504534637767,56.57442044820074,0.0,0.0,0.0,0.0,0.0
15.39,0.6424211465688845,9.474574798408938,0.0,0.0,0.0,0.0,0.0,29.018331948434934,101.3016319664323,56.558090836761394,0.0,0.0,0.0,0.0,0.0
15.42,-0.055047276815072266,-23.248947446132387,0.0,0.0,0.0,0.0,0.0,29.003228927217425,101.3100079692084,56.542495406579455,0.0,0.0,0.0,0.0,0.0
15.42,-0.055047276815072266,-23.248947446132387,0.0,0.0,0.0,0.0,0.0,29.003228927217425,101.3100079692084,56.542495406579455,0.0,0.0,0.0,0.0,0.0
15.45,0.27196684130959436,10.900470604155787,0.0,0.0,0.0,0.0,0.0,28.988125908514483,101.3060807378563,56.55369989545644,0.0,0.0,0.0,0.0,0.0
15.48,0.029858904562918287,-8.070264558222231,0.0,0.0,0.0,0.0,0.0,28.973022892326117,101.30898828818108,56.55150488253648,0.0,0.0,0.0,0.0,0.0
15.51,0.28581055586903603,8.531721710204106,0.0,0.0,0.0,0.0,0.0,28.962954216264187,101.30591448637824,56.55004171016297,0.0,0.0,0.0,0.0,0.0
15.52,0.28581055586903603,0.0,0.0,0.0,0.0,0.0,0.0,28.962954216264187,101.30591448637824,56.55004171016297,0.0,0.0,0.0,0.0,0.0
15.54,0.4134962852511692,6.3842864691067955,0.0,0.0,0.0,0.0,0.0,28.93778253099881,101.30438109756449,56.55308376184277,0.0,0.0,0.0,0.0,0.0
15.57,0.3707439227379261,-1.4250787504413827,0.0,0.0,0.0,0.0,0.0,28.932748194783926,101.30489451223924,56.559051881091534,0.0,0.0,0.0,0.0,0.0
15.6,0.10036120233689161,-9.012757346701342,0.0,0.0,0.0,0.0,0.0,28.92771385884844,101.30814159694992,56.55162093280154,0.0,0.0,0.0,0.0,0.0
15.62,0.10036120233689161,0.0,0.0,0.0,0.0,0.0,0.0,28.92771385884844,101.30814159694992,56.55162093280154,0.0,0.0,0.0,0.0,0.0
15.63,0.31356612033447195,21.320491799754702,0.0,0.0,0.0,0.0,0.0,28.912610852718352,101.3055811658389,56.55612623129397,0.0,0.0,0.0,0.0,0.0
15.66,-0.11335182083556994,-14.2305980390017,0.0,0.0,0.0,0.0,0.0,28.90254218336195,101.31070818260862,56.53456682512636,0.0,0.0,0.0,0.0,0.0
15.69,0.028789035296067356,4.738028537721344,0.0,0.0,0.0,0.0,0.0,28.89247351512313,101.3090011367274,56.5599003765858,0.0,0.0,0.0,0.0,0.0
15.72,-0.12775340057082918,-5.21808119556302,0.0,0.0,0.0,0.0,0.0,28.887439181422813,101.31088114021388,56.54577097438495,0.0,0.0,0.0,0.0,0.0
15.72,-0.12775340057082918,-5.21808119556302,0.0,0.0,0.0,0.0,0.0,28.887439181422813,101.31088114021388,56.54577097438495,0.0,0.0,0.0,0.0,0.0
15.75,-0.14214573793933205,-0.47974457895010597,0.0,0.0,0.0,0.0,0.0,28.872336181998254,101.31105398706039,56.55027656139018,0.0,0.0,0.0,0.0,0.0
15.82,-0.14214573793933205,0.0,0.0,0.0,0.0,0.0,0.0,28.872336181998254,101.31105398706039,56.55027656139018,0.0,0.0,0.0,0.0,0.0
15.92,-0.14214573793933205,0.0,0.0,0.0,0.0,0.0,0.0,28.872336181998254,101.31105398706039,56.55027656139018,0.0,0.0,0.0,0.0,0.0
15.95,0.2703399267593798,13.749522156624021,0.0,0.0,0.0,0.0,0.0,28.867301849415526,101.30610027575909,56.54284681008549,0.0,0.0,0.0,0.0,0.0
15.95,0.2703399267593798,13.749522156624021,0.0,0.0,0.0,0.0,0.0,28.867301849415526,101.30610027575909,56.54284681008549,0.0,0.0,0.0,0.0,0.0
15.98,0.8120627971886152,18.05742901430716,0.0,0.0,0.0,0.0,0.0,29.50666432287544,101.29959479921692,56.649367903137204,0.0,0.0,0.0,0.0,0.0
16.01,0.14191294288106726,-22.338328476917418,0.0,0.0,0.0,0.0,0.0,29.481492486735807,101.30764258760874,56.6456913218812,0.0,0.0,0.0,0.0,0.0
16.02,0.14191294288106726,0.0,0.0,0.0,0.0,0.0,0.0,29.481492486735807,101.30764258760874,56.6456913218812,0.0,0.0,0.0,0.0,0.0
16.04,-0.1301112229475132,-13.601208291429312,0.0,0.0,0.0,0.0,0.0,29.43618319928646,101.31090945680455,56.64578219905262,0.0,0.0,0.0,0.0,0.0
16.07,0.5091496453966726,21.308695611472054,0.0,0.0,0.0,0.0,0.0,29.390873934468253,101.30323240051737,56.63916861116127,0.0,0.0,0.0,0.0,0.0
16.1,0.42220716160898397,-2.898082792922845,0.0,0.0,0.0,0.0,0.0,29.34053033343516,101.30427648859221,56.64523475877269,0.0,0.0,0.0,0.0,0.0
16.12,0.42220716160898397,0.0,0.0,0.0,0.0,0.0,0.0,29.34053033343516,101.30427648859221,56.64523475877269,0.0,0.0,0.0,0.0,0.0
16.13,0.30717886191074295,-11.50282996982639,0.0,0.0,0.0,0.0,0.0,29.300255472725258,101.30565787125927,56.6393599517714,0.0,0.0,0.0,0.0,0.0
16.16,0.4481842309747308,4.700178968799417,0.0,0.0,0.0,0.0,0.0,29.249911921983585,101.3039645303122,56.61190632835171,0.0,0.0,0.0,0.0,0.0
16.19,0.4189536512375014,-0.9743526579076105,0.0,0.0,0.0,0.0,0.0,29.219705804949626,101.30431556000973,56.59409801660952,0.0,0.0,0.0,0.0,0.0
16.22,0.3041295271979483,-3.827470801318745,0.0,0.0,0.0,0.0,0.0,29.1794309978839,101.30569449113453,56.59493511634579,0.0,0.0,0.0,0.0,0.0
16.22,0.3041295271979483,-3.827470801318745,0.0,0.0,0.0,0.0,0.0,29.1794309978839,101.30569449113453,56.59493511634579,0.0,0.0,0.0,0.0,0.0
16.25,0.11833094382421416,-6.193286112457569,0.0,0.0,0.0,0.0,0.0,29.144190556369722,101.30792579181417,56.58310164377345,0.0,0.0,0.0,0.0,0.0
16.28,0.47358767978860405,11.841891198812547,0.0,0.0,0.0,0.0,0.0,29.119018820812926,101.30365946138602,56.59954452357488,0.0,0.0,0.0,0.0,0.0
16.31,0.14576445907640068,-10.927440690407659,0.0,0.0,0.0,0.0,0.0,29.09384709224105,101.30759633350857,56.59588061518112,0.0,0.0,0.0,0.0,0.0
16.32,0.14576445907640068,0.0,0.0,0.0,0.0,0.0,0.0,29.09384709224105,101.30759633350857,56.59588061518112,0.0,0.0,0.0,0.0,0.0
16.34,0.31614188965439327,8.518871528899812,0.0,0.0,0.0,0.0,0.0,29.07370971441269,101.30555023310212,56.59295009812503,0.0,0.0,0.0,0.0,0.0
16.37,0.031172449179326378,-9.498981349168536,0.0,0.0,0.0,0.0,0.0,29.05357234105468,101.30897251322855,56.56991604729209,0.0,0.0,0.0,0.0,0.0
16.4,0.15879728484032074,4.254161188700155,0.0,0.0,0.0,0.0,0.0,29.028400630643592,101.30743981822732,56.57965716013824,0.0,0.0,0.0,0.0,0.0
16.42,0.15879728484032074,0.0,0.0,0.0,0.0,0.0,0.0,29.028400630643592,101.30743981822732,56.57965716013824,0.0,0.0,0.0,0.0,0.0
16.43,0.3719779235136089,21.31806386733306,0.0,0.0,0.0,0.0,0.0,29.0132976077497,101.3048796930496,56.55065877947632,0.0,0.0,0.0,0.0,0.0
16.46,0.24366995185063134,-4.276932388765758,0.0,0.0,0.0,0.0,0.0,28.99819458737038,101.30642056061053,56.548463455533195,0.0,0.0,0.0,0.0,0.0
16.49,-0.3826666626414643,-20.877887149738203,0.0,0.0,0.0,0.0,0.0,28.978057230776177,101.31394259305385,56.552236519597486,0.0,0.0,0.0,0.0,0.0
16.52,0.3568755089367659,24.651405719273406,0.0,0.0,0.0,0.0,0.0,28.95791987865232,101.30506105897702,56.54931017485512,0.0,0.0,0.0,0.0,0.0
16.52,0.3568755089367659,24.651405719273406,0.0,0.0,0.0,0.0,0.0,28.95791987865232,101.30506105897702,56.54931017485512,0.0,0.0,0.0,0.0,0.0
16.55,-0.2549741285752227,-20.394987917065514,0.0,0.0,0.0,0.0,0.0,28.952885541319848,101.31240902412645,56.54857867346964,0.0,0.0,0.0,0.0,0.0
16.58,0.11479208303224575,12.32554038691661,0.0,0.0,0.0,0.0,0.0,28.942816867493093,101.30796829124604,56.53371754563105,0.0,0.0,0.0,0.0,0.0
16.61,-0.013453099973208538,-4.274839433514981,0.0,0.0,0.0,0.0,0.0,28.92771385884844,101.30950844278468,56.53152384352211,0.0,0.0,0.0,0.0,0.0
16.62,-0.013453099973208538,0.0,0.0,0.0,0.0,0.0,0.0,28.92771385884844,101.30950844278468,56.53152384352211,0.0,0.0,0.0,0.0,0.0
16.64,-0.09894099805437095,-4.274394904058212,0.0,0.0,0.0,0.0,0.0,28.91764518781565,101.31053511423735,56.530061545099244,0.0,0.0,0.0,0.0,0.0
16.67,0.043197416757542184,4.737947160396925,0.0,0.0,0.0,0.0,0.0,28.907576517900452,101.30882810003614,56.54199668788952,0.0,0.0,0.0,0.0,0.0
16.7,0.4412887488635431,13.2697110702011,0.0,0.0,0.0,0.0,0.0,28.887439181422813,101.30404733798919,56.54577097438495,0.0,0.0,0.0,0.0,0.0
16.72,0.4412887488635431,0.0,0.0,0.0,0.0,0.0,0.0,28.887439181422813,101.30404733798919,56.54577097438495,0.0,0.0,0.0,0.0,0.0
16.73,0.14259761066303667,-29.86911382004597,0.0,0.0,0.0,0.0,0.0,28.89247351512313,101.30763436521129,56.533104734496774,0.0,0.0,0.0,0.0,0.0
16.76,-0.0994147112926691,-8.06707739852322,0.0,0.0,0.0,0.0,0.0,28.877370514860377,101.31054080334505,56.52421370900781,0.0,0.0,0.0,0.0,0.0
16.82,-0.0994147112926691,0.0,0.0,0.0,0.0,0.0,0.0,28.877370514860377,101.31054080334505,56.52421370900781,0.0,0.0,0.0,0.0,0.0
16.92,-0.0994147112926691,0.0,0.0,0.0,0.0,0.0,0.0,28.877370514860377,101.31054080334505,56.52421370900781,0.0,0.0,0.0,0.0,0.0
16.96,0.0427301160832283,3.5536206843975107,0.0,0.0,0.0,0.0,0.0,28.867301849415526,101.30883371205499,56.53614834228641,0.0,0.0,0.0,0.0,0.0
16.96,0.0427301160832283,3.5536206843975107,0.0,0.0,0.0,0.0,0.0,28.867301849415526,101.30883371205499,56.53614834228641,0.0,0.0,0.0,0.0,0.0
16.99,0.5131972049501066,15.682236295563872,0.0,0.0,0.0,0.0,0.0,29.511698690941557,101.30318379378303,56.63668881783158,0.0,0.0,0.0,0.0,0.0
17.02,-0.199818327893162,-23.767184428108052,0.0,0.0,0.0,0.0,0.0,29.481492486735807,101.31174661672371,56.6456913218812,0.0,0.0,0.0,0.0,0.0
17.02,-0.199818327893162,-23.767184428108052,0.0,0.0,0.0,0.0,0.0,29.481492486735807,101.31174661672371,56.6456913218812,0.0,0.0,0.0,0.0,0.0
17.05,0.09769403497536411,9.917078762283827,0.0,0.0,0.0,0.0,0.0,29.43618319928646,101.30817362796078,56.6122514694254,0.0,0.0,0.0,0.0,0.0
17.08,0.0535585159151275,-1.471183968674672,0.0,0.0,0.0,0.0,0.0,29.390873934468253,101.30870366911446,56.61905127503154,0.0,0.0,0.0,0.0,0.0
17.11,0.009506368336886784,-1.468404919274635,0.0,0.0,0.0,0.0,0.0,29.345564692281187,101.30923271126566,56.60573747364534,0.0,0.0,0.0,0.0,0.0
17.12,0.009506368336886784,0.0,0.0,0.0,0.0,0.0,0.0,29.345564692281187,101.30923271126566,56.60573747364534,0.0,0.0,0.0,0.0,0.0
17.14,0.3353739266131839,16.293377913815203,0.0,0.0,0.0,0.0,0.0,29.290186760341747,101.30531927340039,56.58425683389246,0.0,0.0,0.0,0.0,0.0
17.17,0.4910182533540375,5.188144224694923,0.0,0.0,0.0,0.0,0.0,29.254946275800467,101.30345013880672,56.57912232027281,0.0,0.0,0.0,0.0,0.0
17.2,0.2622620933812847,-7.625205332425707,0.0,0.0,0.0,0.0,0.0,29.21467145308852,101.30619728392513,56.586661675241196,0.0,0.0,0.0,0.0,0.0
17.22,0.2622620933812847,0.0,0.0,0.0,0.0,0.0,0.0,29.21467145308852,101.30619728392513,56.586661675241196,0.0,0.0,0.0,0.0,0.0
17.23,0.005362166471701846,-25.68999269095427,0.0,0.0,0.0,0.0,0.0,29.184465347789228,101.30928248097413,56.548753137665045,0.0,0.0,0.0,0.0,0.0
17.26,0.2321844749245272,7.560743615093892,0.0,0.0,0.0,0.0,0.0,29.144190556369722,101.30655849216164,56.56299605690633,0.0,0.0,0.0,0.0,0.0
17.29,0.24588560662790027,0.4567043901124721,0.0,0.0,0.0,0.0,0.0,29.119018820812926,101.30639395235552,56.552632202162386,0.0,0.0,0.0,0.0,0.0
17.32,0.3024015513868372,1.883864825297827,0.0,0.0,0.0,0.0,0.0,29.09888143739663,101.30571524263581,56.54970285324559,0.0,0.0,0.0,0.0,0.0
17.32,0.3024015513868372,1.883864825297827,0.0,0.0,0.0,0.0,0.0,29.09888143739663,101.30571524263581,56.54970285324559,0.0,0.0,0.0,0.0,0.0
17.35,0.45825438267974583,5.19509437643009,0.0,0.0,0.0,0.0,0.0,29.06364102717489,101.3038435982037,56.54457779591839,0.0,0.0,0.0,0.0,0.0
17.38,-0.011604945690473212,-15.661977612341897,0.0,0.0,0.0,0.0,0.0,29.048537998413668,101.30948624737077,56.53568192330304,0.0,0.0,0.0,0.0,0.0
17.41,0.07325412404403764,2.828635657816921,0.0,0.0,0.0,0.0,0.0,29.018331948434934,101.30846713637798,56.537990874910065,0.0,0.0,0.0,0.0,0.0
17.42,0.07325412404403764,0.0,0.0,0.0,0.0,0.0,0.0,29.018331948434934,101.30846713637798,56.537990874910065,0.0,0.0,0.0,0.0,0.0
17.44,0.3292068209135901,12.797634843477896,0.0,0.0,0.0,0.0,0.0,29.008263267343864,101.30539333482213,56.55662705405696,0.0,0.0,0.0,0.0,0.0
17.47,0.04431473076302428,-9.496403005019626,0.0,0.0,0.0,0.0,0.0,28.988125908514483,101.30881468172298,56.53360111901175,0.0,0.0,0.0,0.0,0.0
17.5,0.44239450451156404,13.269325791617488,0.0,0.0,0.0,0.0,0.0,28.967988554155454,101.30403405899278,56.52397641941826,0.0,0.0,0.0,0.0,0.0
17.52,0.44239450451156404,0.0,0.0,0.0,0.0,0.0,0.0,28.967988554155454,101.30403405899278,56.52397641941826,0.0,0.0,0.0,0.0,0.0
17.53,0.15754403377826298,-28.485047073325653,0.0,0.0,0.0,0.0,0.0,28.947851204266772,101.30745486890281,56.521051399340394,0.0,0.0,0.0,0.0,0.0
17.56,0.08647802411775096,-2.3688669886839246,0.0,0.0,0.0,0.0,0.0,28.952885541319848,101.30830832532173,56.5016879405687,0.0,0.0,0.0,0.0,0.0
17.59,0.2569259433536353,5.681597307862595,0.0,0.0,0.0,0.0,0.0,28.932748194783926,101.3062613667599,56.52555640321988,0.0,0.0,0.0,0.0,0.0
17.62,-0.2838203660880523,-18.024876981388903,0.0,0.0,0.0,0.0,0.0,28.922679523192347,101.31275546163734,56.51739588736794,0.0,0.0,0.0,0.0,0.0
17.62,-0.2838203660880523,-18.024876981388903,0.0,0.0,0.0,0.0,0.0,28.922679523192347,101.31275546163734,56.51739588736794,0.0,0.0,0.0,0.0,0.0
17.65,-0.14168228005503103,4.73793620110109,0.0,0.0,0.0,0.0,0.0,28.912610852718352,101.31104842109261,56.5293304467897,0.0,0.0,0.0,0.0,0.0
17.68,-0.1988245844274794,-1.9047434790815405,0.0,0.0,0.0,0.0,0.0,28.89247351512313,101.31173468214489,56.50631273386051,0.0,0.0,0.0,0.0,0.0
17.71,-0.1988245844274794,0.0,0.0,0.0,0.0,0.0,0.0,28.89247351512313,101.31173468214489,56.50631273386051,0.0,0.0,0.0,0.0,0.0
17.72,-0.1988245844274794,0.0,0.0,0.0,0.0,0.0,0.0,28.89247351512313,101.31173468214489,56.50631273386051,0.0,0.0,0.0,0.0,0.0
17.74,-0.5546213738359973,-17.789839470426273,0.0,0.0,0.0,0.0,0.0,28.877370514860377,101.31600777404662,56.497423408256125,0.0,0.0,0.0,0.0,0.0
17.77,-0.14214573793933205,13.749187863221653,0.0,0.0,0.0,0.0,0.0,28.872336181998254,101.31105398706039,56.49669284466446,0.0,0.0,0.0,0.0,0.0
17.82,-0.14214573793933205,0.0,0.0,0.0,0.0,0.0,0.0,28.872336181998254,101.31105398706039,56.49669284466446,0.0,0.0,0.0,0.0,0.0
17.92,-0.14214573793933205,0.0,0.0,0.0,0.0,0.0,0.0,28.872336181998254,101.31105398706039,56.49669284466446,0.0,0.0,0.0,0.0,0.0
17.97,0.07107333360491963,4.264381430885276,0.0,0.0,0.0,0.0,0.0,28.857233185088262,101.30849332637386,56.4945013575693,0.0,0.0,0.0,0.0,0.0
17.97,0.07107333360491963,4.264381430885276,0.0,0.0,0.0,0.0,0.0,28.857233185088262,101.30849332637386,56.4945013575693,0.0,0.0,0.0,0.0,0.0
18.0,0.38450344589338825,10.447670409615224,0.0,0.0,0.0,0.0,0.0,29.496595587581396,101.30472927339581,56.61436361088461,0.0,0.0,0.0,0.0,0.0
18.02,0.38450344589338825,0.0,0.0,0.0,0.0,0.0,0.0,29.496595587581396,101.30472927339581,56.61436361088461,0.0,0.0,0.0,0.0,0.0
18.03,-0.014885020375676739,-39.93884662690026,0.0,0.0,0.0,0.0,0.0,29.47645812034607,101.30952563943941,56.604718105445045,0.0,0.0,0.0,0.0,0.0
18.06,0.2397492438537685,8.487808807648857,0.0,0.0,0.0,0.0,0.0,29.426114471815527,101.30646764521511,56.59737177283245,0.0,0.0,0.0,0.0,0.0
18.09,-0.03216683381380259,-9.06386925558536,0.0,0.0,0.0,0.0,0.0,29.380805212026463,101.30973318564502,56.60417220042882,0.0,0.0,0.0,0.0,0.0
18.12,0.5214227074310829,18.45298470816215,0.0,0.0,0.0,0.0,0.0,29.325427258573473,101.30308501461191,56.589393001919404,0.0,0.0,0.0,0.0,0.0
18.12,0.5214227074310829,18.45298470816215,0.0,0.0,0.0,0.0,0.0,29.325427258573473,101.30308501461191,56.589393001919404,0.0,0.0,0.0,0.0,0.0
18.15,0.36357199602288115,-5.261690380273815,0.0,0.0,0.0,0.0,0.0,29.280118049075828,101.30498064037414,56.56938351173363,0.0,0.0,0.0,0.0,0.0
18.18,0.17760729540498787,-6.198823353929541,0.0,0.0,0.0,0.0,0.0,29.2448775684461,101.30721392327197,56.5709528938999,0.0,0.0,0.0,0.0,0.0
18.21,0.24766749848114555,2.3353401025385008,0.0,0.0,0.0,0.0,0.0,29.19956839918159,101.30637255325294,56.5777595035585,0.0,0.0,0.0,0.0,0.0
18.22,0.24766749848114555,0.0,0.0,0.0,0.0,0.0,0.0,29.19956839918159,101.30637255325294,56.5777595035585,0.0,0.0,0.0,0.0,0.0
18.24,0.2613169113301361,0.6824706424495431,0.0,0.0,0.0,0.0,0.0,29.17439664825797,101.30620863479277,56.5539891276635,0.0,0.0,0.0,0.0,0.0
18.27,0.07552946228196356,-6.192914968272184,0.0,0.0,0.0,0.0,0.0,29.139156208699568,101.30843981092507,56.55556209251501,0.0,0.0,0.0,0.0,0.0
18.3,0.20308905224113882,4.251986331972348,0.0,0.0,0.0,0.0,0.0,29.113984474539755,101.30690790600168,56.53179814442135,0.0,0.0,0.0,0.0,0.0
18.32,0.20308905224113882,0.0,0.0,0.0,0.0,0.0,0.0,29.113984474539755,101.30690790600168,56.53179814442135,0.0,0.0,0.0,0.0,0.0
18.33,0.33066402640757664,12.75749741664632,0.0,0.0,0.0,0.0,0.0,29.088812747364862,101.30537583508394,56.548238381872096,0.0,0.0,0.0,0.0,0.0
18.36,0.5293110947184887,6.6215689436968175,0.0,0.0,0.0,0.0,0.0,29.058606683975086,101.30299028389395,56.51704690891438,0.0,0.0,0.0,0.0,0.0
18.39,-0.0971543987614587,-20.882183115997456,0.0,0.0,0.0,0.0,0.0,29.038469313969834,101.31051365789209,56.520819352328594,0.0,0.0,0.0,0.0,0.0
18.42,0.07325412404403764,5.680284093516329,0.0,0.0,0.0,0.0,0.0,29.018331948434934,101.30846713637798,56.524592038154424,0.0,0.0,0.0,0.0,0.0
18.42,0.07325412404403764,5.680284093516329,0.0,0.0,0.0,0.0,0.0,29.018331948434934,101.30846713637798,56.524592038154424,0.0,0.0,0.0,0.0,0.0
18.45,0.5140999003012703,14.694859208575606,0.0,0.0,0.0,0.0,0.0,29.003228927217425,101.30317295340822,56.51569852342333,0.0,0.0,0.0,0.0,0.0
18.48,-0.1833326703260152,-23.247752354241968,0.0,0.0,0.0,0.0,0.0,28.988125908514483,101.3115486287709,56.51350439068994,0.0,0.0,0.0,0.0,0.0
18.51,0.058166964575477875,8.049987830049464,0.0,0.0,0.0,0.0,0.0,28.962954216264187,101.30864832430079,56.50984818066747,0.0,0.0,0.0,0.0,0.0
18.52,0.058166964575477875,0.0,0.0,0.0,0.0,0.0,0.0,28.962954216264187,101.30864832430079,56.50984818066747,0.0,0.0,0.0,0.0,0.0
18.54,0.34242980110724464,14.213141826588641,0.0,0.0,0.0,0.0,0.0,28.942816867493093,101.30523453871437,56.50692382289637,0.0,0.0,0.0,0.0,0.0
18.57,0.5273167646750165,6.162898785592163,0.0,0.0,0.0,0.0,0.0,28.93778253099881,101.30301423356278,56.506192818229415,0.0,0.0,0.0,0.0,0.0
18.6,0.10036120233689161,-14.231852077936958,0.0,0.0,0.0,0.0,0.0,28.92771385884844,101.30814159694992,56.504730910642735,0.0,0.0,0.0,0.0,0.0
18.62,0.10036120233689161,0.0,0.0,0.0,0.0,0.0,0.0,28.92771385884844,101.30814159694992,56.504730910642735,0.0,0.0,0.0,0.0,0.0
18.63,-0.18442178409141752,-28.478298642836577,0.0,0.0,0.0,0.0,0.0,28.907576517900452,101.31156170870085,56.48841292810012,0.0,0.0,0.0,0.0,0.0
18.66,0.25640736307940504,14.694304905693528,0.0,0.0,0.0,0.0,0.0,28.89247351512313,101.30626759449021,56.48622112308669,0.0,0.0,0.0,0.0,0.0
18.69,-0.013947324716803156,-9.011822926539931,0.0,0.0,0.0,0.0,0.0,28.887439181422813,101.30951437817882,56.48549058927295,0.0,0.0,0.0,0.0,0.0
18.72,0.0998599281275625,3.793575094812494,0.0,0.0,0.0,0.0,0.0,28.887439181422813,101.30814761693884,56.47209745164822,0.0,0.0,0.0,0.0,0.0
18.72,0.0998599281275625,3.793575094812494,0.0,0.0,0.0,0.0,0.0,28.887439181422813,101.30814761693884,56.47209745164822,0.0,0.0,0.0,0.0,0.0
18.75,0.0,-3.328664270918624,0.0,0.0,0.0,0.0,0.0,28.862267517112194,101.30934687783322,56.48183842923912,0.0,0.0,0.0,0.0,0.0
18.78,0.07107333360491963,2.369111120163898,0.0,0.0,0.0,0.0,0.0,28.857233185088262,101.30849332637386,56.48780461451303,0.0,0.0,0.0,0.0,0.0
18.82,0.07107333360491963,0.0,0.0,0.0,0.0,0.0,0.0,28.857233185088262,101.30849332637386,56.48780461451303,0.0,0.0,0.0,0.0,0.0
18.92,0.07107333360491963,0.0,0.0,0.0,0.0,0.0,0.0,28.857233185088262,101.30849332637386,56.48780461451303,0.0,0.0,0.0,0.0,0.0
18.98,0.28429519278351467,3.55369765297666,0.0,0.0,0.0,0.0,0.0,28.842130190692842,101.30593268461563,56.4923101760424,0.0,0.0,0.0,0.0,0.0
18.98,0.28429519278351467,3.55369765297666,0.0,0.0,0.0,0.0,0.0,28.842130190692842,101.30593268461563,56.4923101760424,0.0,0.0,0.0,0.0,0.0
19.01,0.5265482676020827,8.075102493951963,0.0,0.0,0.0,0.0,0.0,29.48652685340494,101.30302346235268,56.579366462171116,0.0,0.0,0.0,0.0,0.0
19.02,0.5265482676020827,0.0,0.0,0.0,0.0,0.0,0.0,29.48652685340494,101.30302346235268,56.579366462171116,0.0,0.0,0.0,0.0,0.0
19.04,0.4970349182476863,-1.4756674677198527,0.0,0.0,0.0,0.0,0.0,29.45632065758109,101.30337788516617,56.56825507785618,0.0,0.0,0.0,0.0,0.0
19.07,0.19687453358180562,-10.005346155528978,0.0,0.0,0.0,0.0,0.0,29.421080108499154,101.3069825377584,56.589932514555755,0.0,0.0,0.0,0.0,0.0
19.1,0.038865204083476934,-5.26697764994409,0.0,0.0,0.0,0.0,0.0,29.37577085122466,101.30888012748878,56.556510006591736,0.0,0.0,0.0,0.0,0.0
19.12,0.038865204083476934,0.0,0.0,0.0,0.0,0.0,0.0,29.37577085122466,101.30888012748878,56.556510006591736,0.0,0.0,0.0,0.0,0.0
19.13,0.29364742951879297,25.478222543536674,0.0,0.0,0.0,0.0,0.0,29.325427258573473,101.30582037215288,56.56257923627167,0.0,0.0,0.0,0.0,0.0
19.16,0.43461156617700003,4.698804555273391,0.0,0.0,0.0,0.0,0.0,29.275083693861962,101.3041275241659,56.55524500064678,0.0,0.0,0.0,0.0,0.0
19.19,0.24864991520074153,-6.198721699208382,0.0,0.0,0.0,0.0,0.0,29.23984321518801,101.30636075521188,56.55681502219433,0.0,0.0,0.0,0.0,0.0
19.22,0.4043522468399108,5.19007772130606,0.0,0.0,0.0,0.0,0.0,29.204602750204504,101.30449090847692,56.53828145431814,0.0,0.0,0.0,0.0,0.0
19.22,0.4043522468399108,5.19007772130606,0.0,0.0,0.0,0.0,0.0,29.204602750204504,101.30449090847692,56.53828145431814,0.0,0.0,0.0,0.0,0.0
19.25,0.061840549811006396,-11.417056567629713,0.0,0.0,0.0,0.0,0.0,29.1643279498443,101.30860420667588,56.525720274655576,0.0,0.0,0.0,0.0,0.0
19.28,0.21763213718992147,5.193052912630305,0.0,0.0,0.0,0.0,0.0,29.129087514197455,101.30673325451914,56.527294517321714,0.0,0.0,0.0,0.0,0.0
19.31,0.231347759088526,0.457187396620188,0.0,0.0,0.0,0.0,0.0,29.10391578283161,101.30656854046721,56.52363389580451,0.0,0.0,0.0,0.0,0.0
19.32,0.231347759088526,0.0,0.0,0.0,0.0,0.0,0.0,29.10391578283161,101.30656854046721,56.52363389580451,0.0,0.0,0.0,0.0,0.0
19.34,0.2450861086973133,0.6869174804393787,0.0,0.0,0.0,0.0,0.0,29.078744058450685,101.30640355369034,56.499876565138976,0.0,0.0,0.0,0.0,0.0
19.37,0.5148018746452243,8.990525531596694,0.0,0.0,0.0,0.0,0.0,29.043503656052053,101.30316452347185,56.49475568472333,0.0,0.0,0.0,0.0,0.0
19.4,0.15879728484032074,-11.866819660164408,0.0,0.0,0.0,0.0,0.0,29.028400630643592,101.30743981822732,56.4992598280064,0.0,0.0,0.0,0.0,0.0
19.42,0.15879728484032074,0.0,0.0,0.0,0.0,0.0,0.0,29.028400630643592,101.30743981822732,56.4992598280064,0.0,0.0,0.0,0.0,0.0
19.43,0.4430387568124705,28.424147197220634,0.0,0.0,0.0,0.0,0.0,29.008263267343864,101.30402632218107,56.48963646321165,0.0,0.0,0.0,0.0,0.0
19.46,0.42856129656951736,-0.4825820080984202,0.0,0.0,0.0,0.0,0.0,28.993160247802734,101.30420018179824,56.49414085661265,0.0,0.0,0.0,0.0,0.0
19.49,0.7128126171583327,9.47504401962794,0.0,0.0,0.0,0.0,0.0,28.973022892326117,101.30078665586932,56.47112443604293,0.0,0.0,0.0,0.0,0.0
19.52,0.01541232446999885,-23.24667642294358,0.0,0.0,0.0,0.0,0.0,28.95791987865232,101.3091617838392,56.475629019961914,0.0,0.0,0.0,0.0,0.0
19.52,0.01541232446999885,-23.24667642294358,0.0,0.0,0.0,0.0,0.0,28.95791987865232,101.3091617838392,56.475629019961914,0.0,0.0,0.0,0.0,0.0
19.55,0.04372561785623952,0.9437764462079865,0.0,0.0,0.0,0.0,0.0,28.947851204266772,101.30882175663767,56.474167499435254,0.0,0.0,0.0,0.0,0.0
19.58,0.10036120233689161,1.8878528160218884,0.0,0.0,0.0,0.0,0.0,28.92771385884844,101.30814159694992,56.477941619088924,0.0,0.0,0.0,0.0,0.0
19.61,0.2280783095086869,4.257236905726349,0.0,0.0,0.0,0.0,0.0,28.90254218336195,101.30660780401807,56.460896137950854,0.0,0.0,0.0,0.0,0.0
19.62,0.2280783095086869,0.0,0.0,0.0,0.0,0.0,0.0,28.90254218336195,101.30660780401807,56.460896137950854,0.0,0.0,0.0,0.0,0.0
19.64,0.34189070711791114,5.690619880461333,0.0,0.0,0.0,0.0,0.0,28.90254218336195,101.30524101274472,56.467592335206,0.0,0.0,0.0,0.0,0.0
19.67,0.14259761066303667,-6.643103215162231,0.0,0.0,0.0,0.0,0.0,28.89247351512313,101.30763436521129,56.47282785385813,0.0,0.0,0.0,0.0,0.0
19.7,0.7399843232536252,19.912890419687887,0.0,0.0,0.0,0.0,0.0,28.882404848001897,101.30046036033329,56.464670921741664,0.0,0.0,0.0,0.0,0.0
19.72,0.7399843232536252,0.0,0.0,0.0,0.0,0.0,0.0,28.882404848001897,101.30046036033329,56.464670921741664,0.0,0.0,0.0,0.0,0.0
19.73,0.4268824588439213,-31.310186440965495,0.0,0.0,0.0,0.0,0.0,28.872336181998254,101.3042203429526,56.45651461612436,0.0,0.0,0.0,0.0,0.0
19.76,-0.14214573793933205,-18.96760655944106,0.0,0.0,0.0,0.0,0.0,28.872336181998254,101.31105398706039,56.49669284466446,0.0,0.0,0.0,0.0,0.0
19.79,0.07107333360491963,7.107302384808961,0.0,0.0,0.0,0.0,0.0,28.857233185088262,101.30849332637386,56.46771575093669,0.0,0.0,0.0,0.0,0.0
19.82,0.07107333360491963,0.0,0.0,0.0,0.0,0.0,0.0,28.857233185088262,101.30849332637386,56.46771575093669,0.0,0.0,0.0,0.0,0.0
19.92,0.07107333360491963,0.0,0.0,0.0,0.0,0.0,0.0,28.857233185088262,101.30849332637386,56.46771575093669,0.0,0.0,0.0,0.0,0.0
19.99,-0.04272833840933021,-1.6257381716322166,0.0,0.0,0.0,0.0,0.0,28.857233185088262,101.30986002436715,56.46771575093669,0.0,0.0,0.0,0.0,0.0
19.99,-0.04272833840933021,-1.6257381716322166,0.0,0.0,0.0,0.0,0.0,28.857233185088262,101.30986002436715,56.46771575093669,0.0,0.0,0.0,0.0,0.0
20.02,0.49842138141371173,18.038323994100715,0.0,0.0,0.0,0.0,0.0,29.496595587581396,101.3033612352484,56.58754085809004,0.0,0.0,0.0,0.0,0.0
20.02,0.49842138141371173,18.038323994100715,0.0,0.0,0.0,0.0,0.0,29.496595587581396,101.3033612352484,56.58754085809004,0.0,0.0,0.0,0.0,0.0
20.05,0.6967257669991511,6.610146186181063,0.0,0.0,0.0,0.0,0.0,29.466389388404785,101.30097983763994,56.55631550967446,0.0,0.0,0.0,0.0,0.0
20.08,0.08297293071879985,-20.458427876013356,0.0,0.0,0.0,0.0,0.0,29.421080108499154,101.3083504193577,56.58322793171205,0.0,0.0,0.0,0.0,0.0
20.11,0.08172653155393839,-0.04154663882871399,0.0,0.0,0.0,0.0,0.0,29.380805212026463,101.30836538785559,56.55724382083943,0.0,0.0,0.0,0.0,0.0
20.12,0.08172653155393839,0.0,0.0,0.0,0.0,0.0,0.0,29.380805212026463,101.30836538785559,56.55724382083943,0.0,0.0,0.0,0.0,0.0
20.14,0.023029832175424092,-2.9348349689257773,0.0,0.0,0.0,0.0,0.0,29.320392900845036,101.30907030163809,56.541737923410466,0.0,0.0,0.0,0.0,0.0
20.17,0.10761482923097865,2.8194999018517115,0.0,0.0,0.0,0.0,0.0,29.290186760341747,101.30805448547186,56.537338368029964,0.0,0.0,0.0,0.0,0.0
20.2,0.3343099710993436,7.556504728946106,0.0,0.0,0.0,0.0,0.0,29.249911921983585,101.30533205055102,56.5314741839499,0.0,0.0,0.0,0.0,0.0
20.22,0.3343099710993436,0.0,0.0,0.0,0.0,0.0,0.0,29.249911921983585,101.30533205055102,56.5314741839499,0.0,0.0,0.0,0.0,0.0
20.23,0.21944098895167463,-11.486898214765098,0.0,0.0,0.0,0.0,0.0,29.209637101506814,101.30671153159068,56.52561216068723,0.0,0.0,0.0,0.0,0.0
20.26,0.3041295271979483,2.822951274875681,0.0,0.0,0.0,0.0,0.0,29.1794309978839,101.30569449113453,56.501116916121866,0.0,0.0,0.0,0.0,0.0
20.29,0.34603918400442524,1.396988560216011,0.0,0.0,0.0,0.0,0.0,29.144190556369722,101.3051911933048,56.529491296139085,0.0,0.0,0.0,0.0,0.0
20.32,0.27414207807608837,-2.396570197611138,0.0,0.0,0.0,0.0,0.0,29.108950128545985,101.30605461506039,56.51096656391259,0.0,0.0,0.0,0.0,0.0
20.32,0.27414207807608837,-2.396570197611138,0.0,0.0,0.0,0.0,0.0,29.108950128545985,101.30605461506039,56.51096656391259,0.0,0.0,0.0,0.0,0.0
20.35,0.2450861086973133,-0.9685323126257993,0.0,0.0,0.0,0.0,0.0,29.078744058450685,101.30640355369034,56.49317783522322,0.0,0.0,0.0,0.0,0.0
20.38,0.5293110947184887,9.474166200706609,0.0,0.0,0.0,0.0,0.0,29.058606683975086,101.30299028389395,56.51034775994761,0.0,0.0,0.0,0.0,0.0
20.41,0.2443475608994583,-9.498784460633987,0.0,0.0,0.0,0.0,0.0,29.038469313969834,101.30641242306315,56.50072269608072,0.0,0.0,0.0,0.0,0.0
20.42,0.2443475608994583,0.0,0.0,0.0,0.0,0.0,0.0,29.038469313969834,101.30641242306315,56.50072269608072,0.0,0.0,0.0,0.0,0.0
20.44,0.002193620114662176,-12.107697039240065,0.0,0.0,0.0,0.0,0.0,29.023366289399565,101.30932053358082,56.491830212105995,0.0,0.0,0.0,0.0,0.0
20.47,0.12984183942441052,4.254940643658621,0.0,0.0,0.0,0.0,0.0,28.99819458737038,101.3077875534942,56.488174133301925,0.0,0.0,0.0,0.0,0.0
20.5,0.11537798792462861,-0.4821283833260454,0.0,0.0,0.0,0.0,0.0,28.983091569505632,101.3079612549058,56.472586163746016,0.0,0.0,0.0,0.0,0.0
20.52,0.11537798792462861,0.0,0.0,0.0,0.0,0.0,0.0,28.983091569505632,101.3079612549058,56.472586163746016,0.0,0.0,0.0,0.0,0.0
20.53,0.029858904562918287,-8.551908336169696,0.0,0.0,0.0,0.0,0.0,28.973022892326117,101.30898828818108,56.48451890139899,0.0,0.0,0.0,0.0,0.0
20.56,0.28581055586903603,8.531721710204613,0.0,0.0,0.0,0.0,0.0,28.962954216264187,101.30591448637824,56.476359831064116,0.0,0.0,0.0,0.0,0.0
20.59,-0.22665566500396306,-17.082207362432655,0.0,0.0,0.0,0.0,0.0,28.942816867493093,101.31206892600748,56.50022596116129,0.0,0.0,0.0,0.0,0.0
20.62,0.18585885820624704,13.750484107006482,0.0,0.0,0.0,0.0,0.0,28.93778253099881,101.30711482795337,56.47940300008017,0.0,0.0,0.0,0.0,0.0
20.62,0.18585885820624704,13.750484107006482,0.0,0.0,0.0,0.0,0.0,28.93778253099881,101.30711482795337,56.47940300008017,0.0,0.0,0.0,0.0,0.0
20.65,0.18585885820624704,0.0,0.0,0.0,0.0,0.0,0.0,28.93778253099881,101.30711482795337,56.47940300008017,0.0,0.0,0.0,0.0,0.0
20.65,0.35631269285372746,0.0,0.0,0.0,0.0,0.0,0.0,28.91764518781565,101.30506781787888,56.50326913873445,0.0,0.0,0.0,0.0,0.0
20.68,0.45570428186020195,3.3130529668823576,0.0,0.0,0.0,0.0,0.0,28.90254218336195,101.30387422226644,56.480985412481864,0.0,0.0,0.0,0.0,0.0
20.71,-0.04228154769492454,-16.599527651836922,0.0,0.0,0.0,0.0,0.0,28.89750784910284,101.3098546586174,56.48025487661686,0.0,0.0,0.0,0.0,0.0
20.72,-0.04228154769492454,0.0,0.0,0.0,0.0,0.0,0.0,28.89750784910284,101.3098546586174,56.48025487661686,0.0,0.0,0.0,0.0,0.0
20.74,-0.12775340057082918,-4.2735926437953236,0.0,0.0,0.0,0.0,0.0,28.887439181422813,101.31088114021388,56.45870522439121,0.0,0.0,0.0,0.0,0.0
20.77,-0.0994147112926691,0.9446229759386335,0.0,0.0,0.0,0.0,0.0,28.877370514860377,101.31054080334505,56.463940653186114,0.0,0.0,0.0,0.0,0.0
20.8,-0.21321814224913638,-3.7934476985487655,0.0,0.0,0.0,0.0,0.0,28.877370514860377,101.31190754482785,56.463940653186114,0.0,0.0,0.0,0.0,0.0
20.82,-0.21321814224913638,0.0,0.0,0.0,0.0,0.0,0.0,28.877370514860377,101.31190754482785,56.463940653186114,0.0,0.0,0.0,0.0,0.0
20.92,-0.21321814224913638,0.0,0.0,0.0,0.0,0.0,0.0,28.877370514860377,101.31190754482785,56.463940653186114,0.0,0.0,0.0,0.0,0.0
21.0,0.0427301160832283,3.1993532291546267,0.0,0.0,0.0,0.0,0.0,28.867301849415526,101.30883371205499,56.47587237393602,0.0,0.0,0.0,0.0,0.0
21.0,0.0427301160832283,3.1993532291546267,0.0,0.0,0.0,0.0,0.0,28.867301849415526,101.30883371205499,56.47587237393602,0.0,0.0,0.0,0.0,0.0
21.02,0.0427301160832283,0.0,0.0,0.0,0.0,0.0,0.0,28.867301849415526,101.30883371205499,56.47587237393602,0.0,0.0,0.0,0.0,0.0
21.03,0.6981398531239946,65.54097370406639,0.0,0.0,0.0,0.0,0.0,29.50666432287544,101.30096285632595,56.5890104013297,0.0,0.0,0.0,0.0,0.0
21.06,0.21293671486073418,-16.173437942109985,0.0,0.0,0.0,0.0,0.0,29.47645812034607,101.30678964297358,56.57789732045183,0.0,0.0,0.0,0.0,0.0
21.09,0.026666897691284275,-6.208993905648095,0.0,0.0,0.0,0.0,0.0,29.441217563441022,101.30902662244635,56.56605222013923,0.0,0.0,0.0,0.0,0.0
21.12,-0.08850279864957233,-3.838989878028408,0.0,0.0,0.0,0.0,0.0,29.400942658027635,101.31040975567566,56.553476006246186,0.0,0.0,0.0,0.0,0.0
21.12,-0.08850279864957233,-3.838989878028408,0.0,0.0,0.0,0.0,0.0,29.400942658027635,101.31040975567566,56.553476006246186,0.0,0.0,0.0,0.0,0.0
21.15,0.2654636173148994,11.798880532150008,0.0,0.0,0.0,0.0,0.0,29.335495974868536,101.30615883623457,56.55734348354271,0.0,0.0,0.0,0.0,0.0
21.18,-0.19117862800913432,-15.221408177467215,0.0,0.0,0.0,0.0,0.0,29.295221116393805,101.3116428564018,56.57158392541305,0.0,0.0,0.0,0.0,0.0
21.21,0.3343099710993436,17.5162866369486,0.0,0.0,0.0,0.0,0.0,29.249911921983585,101.30533205055102,56.53817561134548,0.0,0.0,0.0,0.0,0.0
21.22,0.3343099710993436,0.0,0.0,0.0,0.0,0.0,0.0,29.249911921983585,101.30533205055102,56.53817561134548,0.0,0.0,0.0,0.0,0.0
21.24,0.4899979707339486,7.784399981730416,0.0,0.0,0.0,0.0,0.0,29.21467145308852,101.30346239130206,56.54644837434227,0.0,0.0,0.0,0.0,0.0
21.27,-0.03744825839975485,-17.58154097112278,0.0,0.0,0.0,0.0,0.0,29.1794309978839,101.30979661306387,56.52791756566762,0.0,0.0,0.0,0.0,0.0
21.3,0.09008424555904226,4.2510834652930765,0.0,0.0,0.0,0.0,0.0,29.15425925254822,101.30826501681442,56.53095598443993,0.0,0.0,0.0,0.0,0.0
21.32,0.09008424555904226,0.0,0.0,0.0,0.0,0.0,0.0,29.15425925254822,101.30826501681442,56.53095598443993,0.0,0.0,0.0,0.0,0.0
21.33,0.1748333473153718,8.47491017563464,0.0,0.0,0.0,0.0,0.0,29.124053167365492,101.30724723640571,56.5198623195481,0.0,0.0,0.0,0.0,0.0
21.36,0.33066402640757664,5.194355969739964,0.0,0.0,0.0,0.0,0.0,29.088812747364862,101.30537583508394,56.514738384527334,0.0,0.0,0.0,0.0,0.0
21.39,-0.068162654882169,-13.294222709657683,0.0,0.0,0.0,0.0,0.0,29.06867537065409,101.31016547911973,56.51851044684266,0.0,0.0,0.0,0.0,0.0
21.42,-0.011604945690473212,1.8852569730564546,0.0,0.0,0.0,0.0,0.0,29.048537998413668,101.30948624737077,56.50218569959614,0.0,0.0,0.0,0.0,0.0
21.42,-0.011604945690473212,1.8852569730564546,0.0,0.0,0.0,0.0,0.0,29.048537998413668,101.30948624737077,56.50218569959614,0.0,0.0,0.0,0.0,0.0
21.45,0.22985718751030837,8.048737773360035,0.0,0.0,0.0,0.0,0.0,29.023366289399565,101.30658644107294,56.491830212105995,0.0,0.0,0.0,0.0,0.0
21.48,0.4430387568124705,7.106052310071802,0.0,0.0,0.0,0.0,0.0,29.008263267343864,101.30402632218107,56.49633449825522,0.0,0.0,0.0,0.0,0.0
21.51,0.27196684130959436,-5.702397183428989,0.0,0.0,0.0,0.0,0.0,28.988125908514483,101.3060807378563,56.480014394871056,0.0,0.0,0.0,0.0,0.0
21.52,0.27196684130959436,0.0,0.0,0.0,0.0,0.0,0.0,28.988125908514483,101.3060807378563,56.480014394871056,0.0,0.0,0.0,0.0,0.0
21.54,0.11537798792462861,-7.829442669248454,0.0,0.0,0.0,0.0,0.0,28.983091569505632,101.3079612549058,56.485980892513496,0.0,0.0,0.0,0.0,0.0
21.57,0.10092338303403836,-0.48182016301965674,0.0,0.0,0.0,0.0,0.0,28.967988554155454,101.30813484551261,56.49048546486202,0.0,0.0,0.0,0.0,0.0
21.6,0.2002977628035374,3.3124793256498424,0.0,0.0,0.0,0.0,0.0,28.952885541319848,101.30694142731062,56.49499017474865,0.0,0.0,0.0,0.0,0.0
21.62,0.2002977628035374,0.0,0.0,0.0,0.0,0.0,0.0,28.952885541319848,101.30694142731062,56.49499017474865,0.0,0.0,0.0,0.0,0.0
21.63,-0.34046922671872926,-54.07669895223742,0.0,0.0,0.0,0.0,0.0,28.942816867493093,101.31343580585177,56.473436790015384,0.0,0.0,0.0,0.0,0.0
21.66,0.28524453236218994,20.857125302696517,0.0,0.0,0.0,0.0,0.0,28.922679523192347,101.30592128384468,56.47051429134664,0.0,0.0,0.0,0.0,0.0
21.69,0.014870658989049046,-9.012462445771021,0.0,0.0,0.0,0.0,0.0,28.91764518781565,101.30916828895502,56.489874301062784,0.0,0.0,0.0,0.0,0.0
21.72,0.4984499435699419,16.11930948603106,0.0,0.0,0.0,0.0,0.0,28.907576517900452,101.30336089224794,56.47501926402668,0.0,0.0,0.0,0.0,0.0
21.72,0.4984499435699419,16.11930948603106,0.0,0.0,0.0,0.0,0.0,28.907576517900452,101.30336089224794,56.47501926402668,0.0,0.0,0.0,0.0,0.0
21.75,0.5978436828759071,3.313124643532047,0.0,0.0,0.0,0.0,0.0,28.89247351512313,101.30216728709732,56.479524374677005,0.0,0.0,0.0,0.0,0.0
21.78,0.057124023448086314,-18.02398864759334,0.0,0.0,0.0,0.0,0.0,28.882404848001897,101.30866084942079,56.47806347258202,0.0,0.0,0.0,0.0,0.0
21.81,-0.21321814224913638,-9.011405523241482,0.0,0.0,0.0,0.0,0.0,28.877370514860377,101.31190754482785,56.463940653186114,0.0,0.0,0.0,0.0,0.0
21.82,-0.21321814224913638,0.0,0.0,0.0,0.0,0.0,0.0,28.877370514860377,101.31190754482785,56.463940653186114,0.0,0.0,0.0,0.0,0.0
21.92,-0.21321814224913638,0.0,0.0,0.0,0.0,0.0,0.0,28.877370514860377,101.31190754482785,56.463940653186114,0.0,0.0,0.0,0.0,0.0
22.01,0.0427301160832283,2.8438695370262788,0.0,0.0,0.0,0.0,0.0,28.867301849415526,101.30883371205499,56.489265440394135,0.0,0.0,0.0,0.0,0.0
22.01,0.0427301160832283,2.8438695370262788,0.0,0.0,0.0,0.0,0.0,28.867301849415526,101.30883371205499,56.489265440394135,0.0,0.0,0.0,0.0,0.0
22.02,0.0427301160832283,0.0,0.0,0.0,0.0,0.0,0.0,28.867301849415526,101.30883371205499,56.489265440394135,0.0,0.0,0.0,0.0,0.0
22.04,0.7839463385567569,37.06081112367722,0.0,0.0,0.0,0.0,0.0,29.51673305928707,101.29993243763577,56.59048007917843,0.0,0.0,0.0,0.0,0.0
22.07,0.5546781616032515,-7.642272565116558,0.0,0.0,0.0,0.0,0.0,29.47645812034607,101.30268565424845,56.61142387033929,0.0,0.0,0.0,0.0,0.0
22.1,0.16872148369947326,-12.865222596792119,0.0,0.0,0.0,0.0,0.0,29.431148835411296,101.3073206355503,56.57799210941651,0.0,0.0,0.0,0.0,0.0
22.12,0.16872148369947326,0.0,0.0,0.0,0.0,0.0,0.0,29.431148835411296,101.3073206355503,56.57799210941651,0.0,0.0,0.0,0.0,0.0
22.13,0.33893190196804923,17.021041826860984,0.0,0.0,0.0,0.0,0.0,29.4110113827046,101.30527654531963,56.568351182303225,0.0,0.0,0.0,0.0,0.0
22.16,0.23728281050236721,-3.388303048855939,0.0,0.0,0.0,0.0,0.0,29.345564692281187,101.3064972651395,56.54540514716332,0.0,0.0,0.0,0.0,0.0
22.19,-0.034462425137593566,-9.058174521331683,0.0,0.0,0.0,0.0,0.0,29.300255472725258,101.30976075461034,56.552209154089006,0.0,0.0,0.0,0.0,0.0
22.22,0.12118578294431193,5.188273602730601,0.0,0.0,0.0,0.0,0.0,29.26501498427242,101.30789150705117,56.5470764781413,0.0,0.0,0.0,0.0,0.0
22.22,0.12118578294431193,5.188273602730601,0.0,0.0,0.0,0.0,0.0,29.26501498427242,101.30789150705117,56.5470764781413,0.0,0.0,0.0,0.0,0.0
22.25,0.4189536512375014,9.925595609772605,0.0,0.0,0.0,0.0,0.0,29.219705804949626,101.30431556000973,56.53377849531056,0.0,0.0,0.0,0.0,0.0
22.28,0.1620351021582045,-8.563951635976238,0.0,0.0,0.0,0.0,0.0,29.18949969797395,101.30740093429677,56.54948586728507,0.0,0.0,0.0,0.0,0.0
22.31,0.019034596781331015,-4.7666835125628335,0.0,0.0,0.0,0.0,0.0,29.15929360105656,101.30911828227403,56.53838907422558,0.0,0.0,0.0,0.0,0.0
22.32,0.019034596781331015,0.0,0.0,0.0,0.0,0.0,0.0,29.15929360105656,101.30911828227403,56.53838907422558,0.0,0.0,0.0,0.0,0.0
22.34,0.4881403646548177,23.455288393674834,0.0,0.0,0.0,0.0,0.0,29.134121861308813,101.30348469915336,56.52802674310655,0.0,0.0,0.0,0.0,0.0
22.37,0.18855521943344722,-9.986171507378637,0.0,0.0,0.0,0.0,0.0,29.09888143739663,101.3070824466165,56.516202196797416,0.0,0.0,0.0,0.0,0.0
22.4,0.1312438921473158,-1.9103775762045345,0.0,0.0,0.0,0.0,0.0,29.078744058450685,101.3077707157694,56.526673760289135,0.0,0.0,0.0,0.0,0.0
22.42,0.1312438921473158,0.0,0.0,0.0,0.0,0.0,0.0,29.078744058450685,101.3077707157694,56.526673760289135,0.0,0.0,0.0,0.0,0.0
22.43,0.031172449179326378,-10.007144296800933,0.0,0.0,0.0,0.0,0.0,29.05357234105468,101.30897251322855,56.50961610765898,0.0,0.0,0.0,0.0,0.0
22.46,0.13051239678785298,3.3113315869507614,0.0,0.0,0.0,0.0,0.0,29.038469313969834,101.30777950054403,56.52751869286021,0.0,0.0,0.0,0.0,0.0
22.49,0.41475080488012517,9.474613603076502,0.0,0.0,0.0,0.0,0.0,29.018331948434934,101.30436603202455,56.50449548973882,0.0,0.0,0.0,0.0,0.0
22.52,0.058779803705205635,-11.865700039163535,0.0,0.0,0.0,0.0,0.0,29.003228927217425,101.30864096445771,56.522397402863675,0.0,0.0,0.0,0.0,0.0
22.52,0.058779803705205635,-11.865700039163535,0.0,0.0,0.0,0.0,0.0,29.003228927217425,101.30864096445771,56.522397402863675,0.0,0.0,0.0,0.0,0.0
22.55,-0.06950955844646112,-4.276312071722063,0.0,0.0,0.0,0.0,0.0,28.988125908514483,101.31018165484927,56.49340971049098,0.0,0.0,0.0,0.0,0.0
22.58,0.257505432556806,10.900499700109782,0.0,0.0,0.0,0.0,0.0,28.973022892326117,101.30625440756288,56.49121647543596,0.0,0.0,0.0,0.0,0.0
22.61,0.7411118667204686,16.120214472121475,0.0,0.0,0.0,0.0,0.0,28.962954216264187,101.30044682007569,56.489754488180786,0.0,0.0,0.0,0.0,0.0
22.62,0.7411118667204686,0.0,0.0,0.0,0.0,0.0,0.0,28.962954216264187,101.30044682007569,56.489754488180786,0.0,0.0,0.0,0.0,0.0
22.64,0.2286103534466133,-25.625075663693313,0.0,0.0,0.0,0.0,0.0,28.942816867493093,101.3066014145826,56.473436790015384,0.0,0.0,0.0,0.0,0.0
22.67,0.18585885820624704,-1.4250498413454877,0.0,0.0,0.0,0.0,0.0,28.93778253099881,101.30711482795337,56.49949502232124,0.0,0.0,0.0,0.0,0.0
22.7,-0.24107817321389557,-14.231234380672566,0.0,0.0,0.0,0.0,0.0,28.92771385884844,101.31224213683966,56.504730910642735,0.0,0.0,0.0,0.0,0.0
22.72,-0.24107817321389557,0.0,0.0,0.0,0.0,0.0,0.0,28.92771385884844,101.31224213683966,56.504730910642735,0.0,0.0,0.0,0.0,0.0
22.73,-0.17000974060114027,7.1068432612744195,0.0,0.0,0.0,0.0,0.0,28.922679523192347,101.31138862448849,56.504000007727655,0.0,0.0,0.0,0.0,0.0
22.76,0.2280783095086869,13.26960167032707,0.0,0.0,0.0,0.0,0.0,28.90254218336195,101.30660780401807,56.480985412481864,0.0,0.0,0.0,0.0,0.0
22.79,0.028789035296067356,-6.642975807087853,0.0,0.0,0.0,0.0,0.0,28.89247351512313,101.3090011367274,56.49961530267844,0.0,0.0,0.0,0.0,0.0
