# targetAltitude=1500.0
time,altitude,velocity,horizontalVelocity,acceleration,accelerationX,accelerationY,accelerationZ,temperature,pressure,humidity,gpsLat,gpsLon,pitch,roll,yaw
0.0,0.0,0.0,0.0,10.158199543084027,9.773131176757811,0.39983167724609375,-2.741360900878906,20.0,101.3,50.0,0.0,0.0,-0.5801526717557252,-1.0229007633587786,0.22900763358778625
0.04,0.0,0.0,0.0,10.072251588019746,9.686939916992188,0.3711012573242187,-2.7341782958984373,20.0,101.3,50.0,0.0,0.0,-1.0381679389312977,-1.1908396946564885,0.22900763358778625
0.09,0.0,0.0,0.0,10.091544377013726,9.70369932861328,0.41898529052734373,-2.73896669921875,20.0,101.3,50.0,0.0,0.0,-0.9770992366412213,-1.1145038167938932,0.24427480916030533
0.12,0.0,0.0,0.0,10.091544377013726,9.70369932861328,0.41898529052734373,-2.73896669921875,20.0,101.3,50.0,0.0,0.0,-0.9770992366412213,-1.1145038167938932,0.24427480916030533
0.13,0.0,0.0,0.0,10.154476501599792,9.763554370117188,0.373495458984375,-2.7653029174804686,20.0,101.3,50.0,0.0,0.0,-0.8549618320610687,-1.1755725190839694,0.1984732824427481
0.18,0.0,0.0,0.0,10.122286521490654,9.746794958496093,0.39264907226562495,-2.703053674316406,20.0,101.3,50.0,0.0,0.0,-1.0229007633587786,-1.1297709923664123,0.10687022900763359
0.22,0.0,0.0,0.0,10.17730321466526,9.80665,0.3902548706054687,-2.693476867675781,20.0,101.3,50.0,0.0,0.0,-0.8244274809160306,-1.1755725190839694,0.13740458015267176
0.27,0.0,0.0,0.0,10.137060290298505,9.739612353515625,0.38307226562499996,-2.7844565307617186,20.0,101.3,50.0,0.0,0.0,-0.7938931297709924,-1.1603053435114503,0.030534351145038167
0.31,0.0,0.0,0.0,10.1529815956656,9.773131176757811,0.36391865234375,-2.7269956909179687,20.0,101.3,50.0,0.0,0.0,-1.0687022900763359,-1.1908396946564885,0.0916030534351145
0.34,0.0,0.0,0.0,10.110460467476376,9.730035546875,0.38786066894531246,-2.7198130859375,20.0,101.3,50.0,0.0,0.0,-1.0381679389312977,-1.1603053435114503,0.2900763358778626
0.37,0.0,0.0,0.0,10.120037796882439,9.734823950195311,0.430956298828125,-2.731784094238281,20.0,101.3,50.0,0.0,0.0,-0.5190839694656488,-1.1145038167938932,0.21374045801526717
0.4,0.0,0.0,0.0,10.041997885462111,9.660603698730467,0.37828386230468747,-2.7150246826171873,20.0,101.3,50.0,0.0,0.0,-0.8854961832061069,-1.083969465648855,0.13740458015267176
0.45,0.0,0.0,0.0,10.147754751584275,9.76116016845703,0.4261678955078125,-2.741360900878906,20.0,101.3,50.0,0.0,0.0,-0.7175572519083969,-1.282442748091603,-0.12213740458015267
0.48,0.0,0.0,0.0,10.051821792976781,9.64623848876953,0.3591302490234375,-2.8036101440429686,20.0,101.3,50.0,0.0,0.0,-1.297709923664122,-1.1755725190839694,0.030534351145038167
0.51,0.0,0.0,0.0,9.80136595984304,9.406818322753905,0.3591302490234375,-2.729389892578125,20.0,101.3,50.0,0.0,0.0,-2.045801526717557,-1.0229007633587786,0.9007633587786259
0.56,0.0,0.0,0.0,10.207503781128175,9.811438403320311,0.3495534423828125,-2.7940333374023436,20.0,101.3,50.0,0.0,0.0,-1.3129770992366412,-1.0381679389312977,0.2595419847328244
0.6,0.0,0.0,0.0,5.460873784933232,5.372588525390625,0.3399766357421875,-0.9169792358398436,20.0,101.3,50.0,0.0,0.0,-2.946564885496183,-1.2213740458015268,0.16793893129770993
0.61,0.0,0.0,0.0,5.460873784933232,5.372588525390625,0.3399766357421875,-0.9169792358398436,20.0,101.3,50.0,0.0,0.0,-2.946564885496183,-1.2213740458015268,0.16793893129770993
0.61,0.0,0.0,0.0,5.460873784933232,5.372588525390625,0.3399766357421875,-0.9169792358398436,20.0,101.3,50.0,0.0,0.0,-2.946564885496183,-1.2213740458015268,0.16793893129770993
0.64,0.0,0.0,0.0,6.4275508481759545,5.781997009277344,-0.5722141967773438,-2.748543505859375,20.0,101.3,50.0,0.0,0.0,-23.52671755725191,-3.984732824427481,10.183206106870228
0.67,0.0,0.0,0.0,13.434983417001618,13.067552661132812,1.0390835205078124,-2.942473840332031,20.0,101.3,50.0,0.0,0.0,23.755725190839694,3.1297709923664123,-8.412213740458014
0.7,0.0,0.0,0.0,9.931564634647929,9.49300958251953,0.33518823242187495,-2.8993782104492185,20.0,101.3,50.0,0.0,0.0,-9.16030534351145,-4.244274809160306,-0.32061068702290074
0.74,0.0,0.0,0.0,9.885732005568975,9.272743029785156,0.19632453613281248,-3.421314172363281,20.0,101.3,50.0,0.0,0.0,-11.908396946564885,-2.732824427480916,2.1374045801526718
0.78,0.0,0.0,0.0,10.181801051072842,9.651026892089844,0.2825157958984375,-3.2321722412109373,20.0,101.3,50.0,0.0,0.0,-4.442748091603053,-1.1908396946564885,0.2900763358778626
0.81,0.0,0.0,0.0,9.996647212352338,9.639055883789062,0.3687070556640625,-2.6240450195312497,20.0,101.3,50.0,0.0,0.0,-0.21374045801526717,-1.099236641221374,0.015267175572519083
0.85,0.0,0.0,0.0,10.36372716126211,10.000580334472655,0.4525041137695312,-2.6815058593749996,20.0,101.3,50.0,0.0,0.0,-0.42748091603053434,-1.1297709923664123,-0.4122137404580153
0.87,0.0,0.0,0.0,9.80693348901897,9.382876306152344,0.411802685546875,-2.8227637573242186,20.0,101.3,50.0,0.0,0.0,-2.2595419847328246,-1.0687022900763359,0.3969465648854962
0.91,0.0,0.0,0.0,10.157394547125643,9.7683427734375,0.3806780639648437,-2.7581203125,20.0,101.3,50.0,0.0,0.0,-0.7480916030534351,-1.099236641221374,0.1984732824427481
0.96,0.0,0.0,0.0,10.028217043559179,9.68454571533203,0.38786066894531246,-2.5737667846679684,20.0,101.3,50.0,0.0,0.0,-1.6793893129770991,-1.2061068702290076,0.04580152671755725
0.99,0.0,0.0,0.0,10.398493276722238,10.041281762695311,0.4477157104492187,-2.664746447753906,20.0,101.3,50.0,0.0,0.0,1.4045801526717556,-1.3435114503816794,-0.7022900763358778
1.04,0.0,0.0,0.0,10.506797339754044,10.101136804199218,0.4333505004882812,-2.858676782226562,20.0,101.3,50.0,0.0,0.0,0.7480916030534351,-1.3282442748091603,-0.7175572519083969
1.08,0.0,0.0,0.0,10.121575796147638,9.734823950195311,0.4213794921875,-2.73896669921875,20.0,101.3,50.0,0.0,0.0,-0.44274809160305345,-1.1603053435114503,0.12213740458015267
1.12,0.0,0.0,0.0,10.121575796147638,9.734823950195311,0.4213794921875,-2.73896669921875,20.0,101.3,50.0,0.0,0.0,-0.44274809160305345,-1.1603053435114503,0.12213740458015267
1.13,0.0,0.0,0.0,10.095909804493811,9.715670336914062,0.40222587890625,-2.7150246826171873,20.0,101.3,50.0,0.0,0.0,-1.2671755725190839,-1.099236641221374,0.2900763358778626
1.16,0.0,0.0,0.0,9.923505225101518,9.516951599121093,0.40462008056640625,-2.7820623291015623,20.0,101.3,50.0,0.0,0.0,-2.2595419847328246,-0.9770992366412213,0.8854961832061069
1.18,0.0,0.0,0.0,9.923505225101518,9.516951599121093,0.40462008056640625,-2.7820623291015623,20.0,101.3,50.0,0.0,0.0,-2.2595419847328246,-0.9770992366412213,0.8854961832061069
1.2,0.0,0.0,0.0,10.220065054279162,9.828197814941406,0.411802685546875,-2.7724855224609373,20.0,101.3,50.0,0.0,0.0,-0.5343511450381679,-1.1450381679389312,0.2748091603053435
1.25,0.0,0.0,0.0,10.210570882380242,9.823409411621093,0.41898529052734373,-2.7533319091796873,20.0,101.3,50.0,0.0,0.0,-0.2748091603053435,-1.1297709923664123,0.2748091603053435
1.28,0.0,0.0,0.0,10.274557074880468,9.87608184814453,0.3591302490234375,-2.8107927490234372,20.0,101.3,50.0,0.0,0.0,-0.4580152671755725,-1.2061068702290076,0.015267175572519083
1.32,0.0,0.0,0.0,10.025858314638915,9.634267480468749,0.4285620971679687,-2.741360900878906,20.0,101.3,50.0,0.0,0.0,-1.1145038167938932,-1.1297709923664123,0.3511450381679389
1.35,0.0,0.0,0.0,10.127518585770652,9.744400756835937,0.40462008056640625,-2.729389892578125,20.0,101.3,50.0,0.0,0.0,-0.8244274809160306,-1.099236641221374,0.2748091603053435
1.4,0.0,0.0,0.0,10.267304013287134,9.868899243164062,0.41898529052734373,-2.8012159423828122,20.0,101.3,50.0,0.0,0.0,-0.6412213740458015,-1.1908396946564885,0.12213740458015267
1.44,0.0,0.0,0.0,10.201691026376452,9.80665,0.4213794921875,-2.779668127441406,20.0,101.3,50.0,0.0,0.0,-0.8702290076335878,-1.1755725190839694,0.030534351145038167
1.49,0.0,0.0,0.0,10.130989850662663,9.737218151855469,0.43574470214843747,-2.7629087158203123,20.0,101.3,50.0,0.0,0.0,-0.7480916030534351,-1.1145038167938932,0.15267175572519084
1.53,0.0,0.0,0.0,10.08324957640312,9.672574707031249,0.430956298828125,-2.81558115234375,20.0,101.3,50.0,0.0,0.0,-0.8549618320610687,-1.099236641221374,0.2595419847328244
1.58,0.0,0.0,0.0,10.01773200066007,9.631873278808593,0.41419688720703124,-2.722207287597656,20.0,101.3,50.0,0.0,0.0,-1.1603053435114503,-1.1450381679389312,0.21374045801526717
1.62,0.0,0.0,0.0,10.027206105177491,9.634267480468749,0.3806780639648437,-2.7533319091796873,20.0,101.3,50.0,0.0,0.0,-1.5114503816793894,-1.0229007633587786,0.44274809160305345
1.67,0.0,0.0,0.0,10.04536403429837,9.658209497070311,0.373495458984375,-2.7365724975585937,20.0,101.3,50.0,0.0,0.0,-1.3587786259541985,-1.0687022900763359,0.3053435114503817
1.68,0.0,0.0,0.0,10.04536403429837,9.658209497070311,0.373495458984375,-2.7365724975585937,20.0,101.3,50.0,0.0,0.0,-1.3587786259541985,-1.0687022900763359,0.3053435114503817
1.71,0.0,0.0,0.0,10.092452032559649,9.694122521972655,0.4261678955078125,-2.7748797241210936,20.0,101.3,50.0,0.0,0.0,-1.2671755725190839,-1.1603053435114503,0.32061068702290074
1.75,0.0,0.0,0.0,10.22821415565321,9.832986218261718,0.41898529052734373,-2.7844565307617186,20.0,101.3,50.0,0.0,0.0,-0.9465648854961832,-1.2366412213740459,-0.07633587786259542
1.79,0.0,0.0,0.0,10.138844473280873,9.739612353515625,0.411802685546875,-2.786850732421875,20.0,101.3,50.0,0.0,0.0,-0.7786259541984732,-1.1908396946564885,0.10687022900763359
1.83,0.0,0.0,0.0,10.168629941998244,9.78031378173828,0.4070142822265625,-2.7533319091796873,20.0,101.3,50.0,0.0,0.0,-1.1145038167938932,-1.2366412213740459,0.16793893129770993
1.88,0.0,0.0,0.0,10.127461985355072,9.72285294189453,0.39743747558593745,-2.806004345703125,20.0,101.3,50.0,0.0,0.0,-1.0229007633587786,-1.0381679389312977,0.2595419847328244
1.91,0.0,0.0,0.0,10.146704879171025,9.758765966796874,0.40940848388671874,-2.748543505859375,20.0,101.3,50.0,0.0,0.0,-0.6412213740458015,-1.1145038167938932,0.21374045801526717
1.93,0.0,0.0,0.0,10.146704879171025,9.758765966796874,0.40940848388671874,-2.748543505859375,20.0,101.3,50.0,0.0,0.0,-0.6412213740458015,-1.1145038167938932,0.21374045801526717
1.94,0.0,0.0,0.0,10.152701840896796,9.770736975097655,0.4165910888671875,-2.7269956909179687,20.0,101.3,50.0,0.0,0.0,-0.7633587786259542,-1.1450381679389312,0.10687022900763359
1.98,0.0,0.0,0.0,10.0848960660902,9.689334118652344,0.40222587890625,-2.767697119140625,20.0,101.3,50.0,0.0,0.0,-0.9465648854961832,-1.0687022900763359,0.2900763358778626
2.03,0.0,0.0,0.0,10.110913172920686,9.713276135253906,0.411802685546875,-2.77727392578125,20.0,101.3,50.0,0.0,0.0,-1.1450381679389312,-1.1297709923664123,0.24427480916030533
2.07,0.0,0.0,0.0,10.059823702102737,9.670180505371093,0.430956298828125,-2.73896669921875,20.0,101.3,50.0,0.0,0.0,-1.1450381679389312,-1.083969465648855,0.3511450381679389
2.12,0.0,0.0,0.0,10.059823702102737,9.670180505371093,0.430956298828125,-2.73896669921875,20.0,101.3,50.0,0.0,0.0,-1.1450381679389312,-1.083969465648855,0.3511450381679389
2.12,0.0,0.0,0.0,10.051799552619372,9.658209497070311,0.38786066894531246,-2.7581203125,20.0,101.3,50.0,0.0,0.0,-1.2671755725190839,-1.083969465648855,0.24427480916030533
2.17,0.0,0.0,0.0,10.05874242698141,9.670180505371093,0.3711012573242187,-2.7437551025390623,20.0,101.3,50.0,0.0,0.0,-1.2671755725190839,-1.1297709923664123,0.24427480916030533
2.22,0.0,0.0,0.0,10.095853310758727,9.708487731933593,0.411802685546875,-2.73896669921875,20.0,101.3,50.0,0.0,0.0,-1.1450381679389312,-1.1450381679389312,0.3053435114503817
2.25,0.0,0.0,0.0,10.140062773091142,9.746794958496093,0.36631285400390623,-2.7724855224609373,20.0,101.3,50.0,0.0,0.0,-0.8854961832061069,-1.1755725190839694,0.13740458015267176
2.3,0.0,0.0,0.0,10.194946991333829,9.80665,0.430956298828125,-2.7533319091796873,20.0,101.3,50.0,0.0,0.0,-0.8854961832061069,-1.1755725190839694,0.061068702290076333
2.34,0.0,0.0,0.0,10.138979595883301,9.74200655517578,0.4070142822265625,-2.779668127441406,20.0,101.3,50.0,0.0,0.0,-0.6870229007633588,-1.099236641221374,0.04580152671755725
2.37,0.0,0.0,0.0,10.08643800306462,9.698910925292969,0.3902548706054687,-2.741360900878906,20.0,101.3,50.0,0.0,0.0,-1.1297709923664123,-1.1145038167938932,0.12213740458015267
2.41,0.0,0.0,0.0,10.104998340681913,9.708487731933593,0.411802685546875,-2.7724855224609373,20.0,101.3,50.0,0.0,0.0,-1.0381679389312977,-1.1450381679389312,0.3511450381679389
2.46,0.0,0.0,0.0,10.151379464777387,9.76116016845703,0.45010991210937495,-2.750937707519531,20.0,101.3,50.0,0.0,0.0,-0.8091603053435115,-1.1603053435114503,0.061068702290076333
2.48,0.0,0.0,0.0,10.151379464777387,9.76116016845703,0.45010991210937495,-2.750937707519531,20.0,101.3,50.0,0.0,0.0,-0.8091603053435115,-1.1603053435114503,0.061068702290076333
2.51,0.0,0.0,0.0,10.163062303278174,9.756371765136718,0.4165910888671875,-2.81558115234375,20.0,101.3,50.0,0.0,0.0,-0.916030534351145,-1.1908396946564885,0.16793893129770993
2.54,0.0,0.0,0.0,10.132970270239518,9.756371765136718,0.3806780639648437,-2.710236279296875,20.0,101.3,50.0,0.0,0.0,-1.0687022900763359,-1.2061068702290076,0.12213740458015267
2.59,0.0,0.0,0.0,10.142545277246288,9.756371765136718,0.37828386230468747,-2.7461493041992187,20.0,101.3,50.0,0.0,0.0,-0.9312977099236641,-1.2061068702290076,0.10687022900763359
2.64,0.0,0.0,0.0,10.155896119768926,9.756371765136718,0.41898529052734373,-2.789244934082031,20.0,101.3,50.0,0.0,0.0,-1.099236641221374,-1.1450381679389312,0.015267175572519083
2.67,0.0,0.0,0.0,10.155144000864858,9.76116016845703,0.38307226562499996,-2.7748797241210936,20.0,101.3,50.0,0.0,0.0,-0.9312977099236641,-1.1450381679389312,0.16793893129770993
2.72,0.0,0.0,0.0,10.150054375019108,9.749189160156249,0.4285620971679687,-2.7916391357421872,20.0,101.3,50.0,0.0,0.0,-0.8244274809160306,-1.0687022900763359,0.12213740458015267
2.76,0.0,0.0,0.0,10.150054375019108,9.749189160156249,0.4285620971679687,-2.7916391357421872,20.0,101.3,50.0,0.0,0.0,-0.8244274809160306,-1.0687022900763359,0.12213740458015267
2.77,0.0,0.0,0.0,10.104172086913108,9.701305126953125,0.430956298828125,-2.7916391357421872,20.0,101.3,50.0,0.0,0.0,-1.0534351145038168,-1.1297709923664123,0.1984732824427481
2.82,0.0,0.0,0.0,10.111064259205767,9.706093530273437,0.4381389038085937,-2.798821740722656,20.0,101.3,50.0,0.0,0.0,-0.8702290076335878,-1.1297709923664123,0.13740458015267176
2.87,0.0,0.0,0.0,10.166487884093732,9.765948571777344,0.40462008056640625,-2.7964275390625,20.0,101.3,50.0,0.0,0.0,-0.9770992366412213,-1.2061068702290076,0.22900763358778625
2.91,0.0,0.0,0.0,10.09627005107784,9.70369932861328,0.4070142822265625,-2.7581203125,20.0,101.3,50.0,0.0,0.0,-1.0076335877862594,-1.1450381679389312,0.12213740458015267
2.96,0.0,0.0,0.0,10.106057934245309,9.715670336914062,0.4285620971679687,-2.748543505859375,20.0,101.3,50.0,0.0,0.0,-1.083969465648855,-1.083969465648855,0.183206106870229
3.0,0.0,0.0,0.0,10.135385513098761,9.753977563476562,0.41898529052734373,-2.722207287597656,20.0,101.3,50.0,0.0,0.0,-1.083969465648855,-1.1755725190839694,0.0916030534351145
3.05,0.0,0.0,0.0,10.170512573313157,9.78031378173828,0.4213794921875,-2.7581203125,20.0,101.3,50.0,0.0,0.0,-1.0687022900763359,-1.2671755725190839,0.22900763358778625
3.09,0.0,0.0,0.0,10.123178963278354,9.739612353515625,0.3950432739257812,-2.731784094238281,20.0,101.3,50.0,0.0,0.0,-1.0534351145038168,-1.1603053435114503,0.1984732824427481
3.12,0.0,0.0,0.0,10.123178963278354,9.739612353515625,0.3950432739257812,-2.731784094238281,20.0,101.3,50.0,0.0,0.0,-1.0534351145038168,-1.1603053435114503,0.1984732824427481
3.14,0.0,0.0,0.0,10.111185580141855,9.713276135253906,0.40222587890625,-2.779668127441406,20.0,101.3,50.0,0.0,0.0,-0.8702290076335878,-1.1603053435114503,0.2748091603053435
3.19,0.0,0.0,0.0,10.134984803613664,9.74200655517578,0.4213794921875,-2.7629087158203123,20.0,101.3,50.0,0.0,0.0,-1.0076335877862594,-1.1603053435114503,0.15267175572519084
3.22,0.0,0.0,0.0,10.134984803613664,9.74200655517578,0.4213794921875,-2.7629087158203123,20.0,101.3,50.0,0.0,0.0,-1.0076335877862594,-1.1603053435114503,0.15267175572519084
3.23,0.0,0.0,0.0,10.145569584148785,9.74200655517578,0.4070142822265625,-2.8036101440429686,20.0,101.3,50.0,0.0,0.0,-0.5190839694656488,-1.099236641221374,0.13740458015267176
3.26,0.0,0.0,0.0,10.137696989313024,9.746794958496093,0.4070142822265625,-2.7581203125,20.0,101.3,50.0,0.0,0.0,-0.8244274809160306,-1.1297709923664123,0.2595419847328244
3.3,0.0,0.0,0.0,10.099579800517764,9.70369932861328,0.42377369384765623,-2.767697119140625,20.0,101.3,50.0,0.0,0.0,-1.0076335877862594,-1.1755725190839694,0.1984732824427481
3.35,0.0,0.0,0.0,10.162627714211737,9.777919580078125,0.37828386230468747,-2.7437551025390623,20.0,101.3,50.0,0.0,0.0,-0.9923664122137404,-1.1603053435114503,0.21374045801526717
3.38,0.0,0.0,0.0,10.125581539716693,9.732429748535155,0.4165910888671875,-2.7629087158203123,20.0,101.3,50.0,0.0,0.0,-0.7480916030534351,-1.1297709923664123,0.2900763358778626
3.42,0.0,0.0,0.0,10.13918906062589,9.746794958496093,0.4572925170898437,-2.7557261108398436,20.0,101.3,50.0,0.0,0.0,-0.7938931297709924,-1.0076335877862594,0.24427480916030533
3.47,0.0,0.0,0.0,10.16626770491429,9.787496386718749,0.4165910888671875,-2.7174188842773437,20.0,101.3,50.0,0.0,0.0,-0.7938931297709924,-1.1755725190839694,0.183206106870229
3.5,0.0,0.0,0.0,10.208352835759186,9.797073193359374,0.3711012573242187,-2.844311572265625,20.0,101.3,50.0,0.0,0.0,-0.8702290076335878,-1.099236641221374,0.3053435114503817
3.55,0.0,0.0,0.0,10.109473913259345,9.715670336914062,0.4165910888671875,-2.7629087158203123,20.0,101.3,50.0,0.0,0.0,-0.9312977099236641,-1.0534351145038168,0.1984732824427481
3.59,0.0,0.0,0.0,10.140157743445755,9.751583361816406,0.3854664672851562,-2.7533319091796873,20.0,101.3,50.0,0.0,0.0,-0.9770992366412213,-1.1755725190839694,0.183206106870229
3.62,0.0,0.0,0.0,10.135737004564985,9.739612353515625,0.39983167724609375,-2.77727392578125,20.0,101.3,50.0,0.0,0.0,-0.7786259541984732,-1.1450381679389312,0.183206106870229
3.64,0.0,0.0,0.0,10.189356884549149,9.792284790039062,0.40940848388671874,-2.786850732421875,20.0,101.3,50.0,0.0,0.0,-0.6564885496183206,-1.0687022900763359,0.10687022900763359
3.65,0.0,0.0,0.0,10.17381056554161,9.7683427734375,0.3806780639648437,-2.817975354003906,20.0,101.3,50.0,0.0,0.0,-0.5648854961832062,-1.0534351145038168,0.13740458015267176
3.66,0.0,0.0,0.0,10.136009592933515,9.751583361816406,0.411802685546875,-2.7341782958984373,20.0,101.3,50.0,0.0,0.0,-0.7938931297709924,-1.099236641221374,0.04580152671755725
3.66,0.0,0.0,0.0,10.136009592933515,9.751583361816406,0.411802685546875,-2.7341782958984373,20.0,101.3,50.0,0.0,0.0,-0.7938931297709924,-1.099236641221374,0.04580152671755725
3.66,0.0,0.0,0.0,10.136009592933515,9.751583361816406,0.411802685546875,-2.7341782958984373,20.0,101.3,50.0,0.0,0.0,-0.7938931297709924,-1.099236641221374,0.04580152671755725
3.67,0.0,0.0,0.0,10.142928451209066,9.756371765136718,0.3711012573242187,-2.748543505859375,20.0,101.3,50.0,0.0,0.0,-0.5954198473282443,-1.0534351145038168,0.12213740458015267
3.68,0.0,0.0,0.0,10.161581352809582,9.746794958496093,0.40940848388671874,-2.844311572265625,20.0,101.3,50.0,0.0,0.0,-0.8396946564885496,-1.1297709923664123,0.1984732824427481
3.68,0.0,0.0,0.0,10.161581352809582,9.746794958496093,0.40940848388671874,-2.844311572265625,20.0,101.3,50.0,0.0,0.0,-0.8396946564885496,-1.1297709923664123,0.1984732824427481
3.68,0.0,0.0,0.0,10.161581352809582,9.746794958496093,0.40940848388671874,-2.844311572265625,20.0,101.3,50.0,0.0,0.0,-0.8396946564885496,-1.1297709923664123,0.1984732824427481
3.69,0.0,0.0,0.0,10.133431869339825,9.74200655517578,0.430956298828125,-2.7557261108398436,20.0,101.3,50.0,0.0,0.0,-0.6106870229007634,-1.1297709923664123,0.2748091603053435
3.71,0.0,0.0,0.0,10.10665546652658,9.720458740234374,0.3591302490234375,-2.7437551025390623,20.0,101.3,50.0,0.0,0.0,-0.8396946564885496,-1.1603053435114503,0.2748091603053435
3.72,0.0,0.0,0.0,10.153298039548835,9.76116016845703,0.41898529052734373,-2.7629087158203123,20.0,101.3,50.0,0.0,0.0,-0.7938931297709924,-1.1297709923664123,0.21374045801526717
3.72,0.0,0.0,0.0,10.153298039548835,9.76116016845703,0.41898529052734373,-2.7629087158203123,20.0,101.3,50.0,0.0,0.0,-0.7938931297709924,-1.1297709923664123,0.21374045801526717
3.73,0.0,0.0,0.0,10.107471592601495,9.713276135253906,0.42377369384765623,-2.7629087158203123,20.0,101.3,50.0,0.0,0.0,-1.0076335877862594,-1.1450381679389312,0.24427480916030533
3.73,0.0,0.0,0.0,10.107471592601495,9.713276135253906,0.42377369384765623,-2.7629087158203123,20.0,101.3,50.0,0.0,0.0,-1.0076335877862594,-1.1450381679389312,0.24427480916030533
3.74,0.0,0.0,0.0,10.137398718332502,9.737218151855469,0.4165910888671875,-2.789244934082031,20.0,101.3,50.0,0.0,0.0,-0.9618320610687023,-1.1755725190839694,0.2595419847328244
3.74,0.0,0.0,0.0,10.137398718332502,9.737218151855469,0.4165910888671875,-2.789244934082031,20.0,101.3,50.0,0.0,0.0,-0.9618320610687023,-1.1755725190839694,0.2595419847328244
3.75,0.0,0.0,0.0,10.098306096880446,9.720458740234374,0.3950432739257812,-2.7078420776367187,20.0,101.3,50.0,0.0,0.0,-0.7022900763358778,-1.1297709923664123,0.16793893129770993
3.77,0.0,0.0,0.0,10.124572113752924,9.746794958496093,0.4477157104492187,-2.703053674316406,20.0,101.3,50.0,0.0,0.0,-0.6106870229007634,-1.083969465648855,0.183206106870229
3.77,0.0,0.0,0.0,10.124572113752924,9.746794958496093,0.4477157104492187,-2.703053674316406,20.0,101.3,50.0,0.0,0.0,-0.6106870229007634,-1.083969465648855,0.183206106870229
3.78,0.0,0.0,0.0,10.149562187034178,9.763554370117188,0.41419688720703124,-2.741360900878906,20.0,101.3,50.0,0.0,0.0,-0.9618320610687023,-1.1603053435114503,0.07633587786259542
3.79,0.0,0.0,0.0,10.134610661825002,9.749189160156249,0.3854664672851562,-2.741360900878906,20.0,101.3,50.0,0.0,0.0,-0.8854961832061069,-1.083969465648855,0.1984732824427481
3.8,0.0,0.0,0.0,10.165610240112324,9.76116016845703,0.430956298828125,-2.806004345703125,20.0,101.3,50.0,0.0,0.0,-0.9465648854961832,-1.1297709923664123,0.2595419847328244
3.81,0.0,0.0,0.0,10.112569329514063,9.710881933593749,0.411802685546875,-2.7916391357421872,20.0,101.3,50.0,0.0,0.0,-1.1450381679389312,-1.1297709923664123,0.1984732824427481
3.82,0.0,0.0,0.0,10.112569329514063,9.710881933593749,0.411802685546875,-2.7916391357421872,20.0,101.3,50.0,0.0,0.0,-1.1450381679389312,-1.1297709923664123,0.1984732824427481
3.82,0.0,0.0,0.0,10.112569329514063,9.710881933593749,0.411802685546875,-2.7916391357421872,20.0,101.3,50.0,0.0,0.0,-1.1450381679389312,-1.1297709923664123,0.1984732824427481
3.83,0.0,0.0,0.0,10.112569329514063,9.710881933593749,0.411802685546875,-2.7916391357421872,20.0,101.3,50.0,0.0,0.0,-1.1450381679389312,-1.1297709923664123,0.1984732824427481
3.83,0.0,0.0,0.0,10.15692274977614,9.76116016845703,0.411802685546875,-2.77727392578125,20.0,101.3,50.0,0.0,0.0,-0.8396946564885496,-1.099236641221374,0.2595419847328244
3.83,0.0,0.0,0.0,10.15692274977614,9.76116016845703,0.411802685546875,-2.77727392578125,28.980259753935933,101.30645598689446,57.64091536857023,0.0,0.0,-0.8396946564885496,-1.099236641221374,0.2595419847328244
3.83,0.0,0.0,0.0,10.15692274977614,9.76116016845703,0.411802685546875,-2.77727392578125,28.980259753935933,101.30645598689446,57.64091536857023,0.0,0.0,-0.8396946564885496,-1.099236641221374,0.2595419847328244
3.84,0.0,0.0,0.0,10.111316820543431,9.706093530273437,0.4285620971679687,-2.8012159423828122,28.980259753935933,101.30645598689446,57.64091536857023,0.0,0.0,-0.8396946564885496,-1.1603053435114503,0.15267175572519084
3.85,0.0,0.0,0.0,10.12115273513778,9.737218151855469,0.3854664672851562,-2.7341782958984373,28.980259753935933,101.30645598689446,57.64091536857023,0.0,0.0,-0.8549618320610687,-1.1755725190839694,0.16793893129770993
3.86,0.0,0.0,0.0,10.165965761307723,9.775525378417969,0.3902548706054687,-2.7629087158203123,28.980259753935933,101.30645598689446,57.64091536857023,0.0,0.0,-0.9007633587786259,-1.2061068702290076,0.15267175572519084
3.86,0.0,0.0,0.0,10.165965761307723,9.775525378417969,0.3902548706054687,-2.7629087158203123,28.980259753935933,101.30645598689446,57.64091536857023,0.0,0.0,-0.9007633587786259,-1.2061068702290076,0.15267175572519084
3.88,0.0,0.0,0.0,10.110139847915306,9.706093530273437,0.39983167724609375,-2.8012159423828122,28.980259753935933,101.30645598689446,57.64091536857023,0.0,0.0,-1.1297709923664123,-1.2366412213740459,0.12213740458015267
3.89,0.0,0.0,0.0,10.188134351911598,9.78031378173828,0.41898529052734373,-2.8227637573242186,28.980259753935933,101.30645598689446,57.64091536857023,0.0,0.0,-1.0229007633587786,-1.1603053435114503,0.15267175572519084
3.9,0.0,0.0,0.0,10.140713980518878,9.751583361816406,0.39983167724609375,-2.7533319091796873,28.980259753935933,101.30645598689446,57.64091536857023,0.0,0.0,-0.9007633587786259,-1.1297709923664123,0.183206106870229
3.91,0.0,0.0,0.0,10.168909822271097,9.7683427734375,0.42377369384765623,-2.7940333374023436,28.980259753935933,101.30645598689446,57.64091536857023,0.0,0.0,-0.7786259541984732,-1.1603053435114503,0.183206106870229
3.91,0.0,0.0,0.0,10.168909822271097,9.7683427734375,0.42377369384765623,-2.7940333374023436,28.980259753935933,101.30645598689446,57.64091536857023,0.0,0.0,-0.7786259541984732,-1.1603053435114503,0.183206106870229
3.91,0.0,0.0,0.0,10.168909822271097,9.7683427734375,0.42377369384765623,-2.7940333374023436,28.980259753935933,101.30645598689446,57.64091536857023,0.0,0.0,-0.7786259541984732,-1.1603053435114503,0.183206106870229
3.92,0.0,0.0,0.0,10.168909822271097,9.7683427734375,0.42377369384765623,-2.7940333374023436,28.980259753935933,101.30645598689446,57.64091536857023,0.0,0.0,-0.7786259541984732,-1.1603053435114503,0.183206106870229
3.92,0.0,0.0,0.0,10.119646109204158,9.715670336914062,0.42377369384765623,-2.798821740722656,28.980259753935933,101.30645598689446,57.64091536857023,0.0,0.0,-0.9312977099236641,-1.1603053435114503,0.32061068702290074
3.93,0.0,0.0,0.0,10.158175842747507,9.751583361816406,0.39264907226562495,-2.817975354003906,28.980259753935933,101.30645598689446,57.64091536857023,0.0,0.0,-0.8854961832061069,-1.1603053435114503,0.21374045801526717
3.95,0.0,0.0,0.0,10.134983672442377,9.756371765136718,0.430956298828125,-2.710236279296875,28.980259753935933,101.30645598689446,57.64091536857023,0.0,0.0,-0.9923664122137404,-1.2061068702290076,0.10687022900763359
3.95,0.0,0.0,0.0,10.134983672442377,9.756371765136718,0.430956298828125,-2.710236279296875,28.980259753935933,101.30645598689446,57.64091536857023,0.0,0.0,-0.9923664122137404,-1.2061068702290076,0.10687022900763359
3.96,0.0,0.0,0.0,10.134983672442377,9.756371765136718,0.430956298828125,-2.710236279296875,28.980259753935933,101.30645598689446,57.64091536857023,0.0,0.0,-0.9923664122137404,-1.2061068702290076,0.10687022900763359
3.96,0.0,0.0,0.0,10.154528717711935,9.756371765136718,0.4333505004882812,-2.7820623291015623,28.980259753935933,101.30645598689446,57.64091536857023,0.0,0.0,-0.9770992366412213,-1.2061068702290076,0.15267175572519084
3.96,-0.02824363032988053,0.0,0.0,10.154528717711935,9.756371765136718,0.4333505004882812,-2.7820623291015623,29.094161738805088,101.3067951692242,57.65771915431634,0.0,0.0,-0.9770992366412213,-1.2061068702290076,0.15267175572519084
3.97,-0.02824363032988053,0.0,0.0,10.111298679423072,9.727641345214844,0.40222587890625,-2.729389892578125,29.094161738805088,101.3067951692242,57.65771915431634,0.0,0.0,-1.0687022900763359,-1.1908396946564885,0.2748091603053435
3.97,-0.02824363032988053,0.0,0.0,10.111298679423072,9.727641345214844,0.40222587890625,-2.729389892578125,29.094161738805088,101.3067951692242,57.65771915431634,0.0,0.0,-1.0687022900763359,-1.1908396946564885,0.2748091603053435
3.98,-0.02824363032988053,0.0,0.0,10.16296980307393,9.763554370117188,0.354341845703125,-2.798821740722656,29.094161738805088,101.3067951692242,57.65771915431634,0.0,0.0,-0.33587786259541985,-1.0534351145038168,0.24427480916030533
3.98,-0.02824363032988053,0.0,0.0,10.16296980307393,9.763554370117188,0.354341845703125,-2.798821740722656,29.094161738805088,101.3067951692242,57.65771915431634,0.0,0.0,-0.33587786259541985,-1.0534351145038168,0.24427480916030533
4.0,-0.02824363032988053,0.0,0.0,10.127798470176131,9.732429748535155,0.4381389038085937,-2.767697119140625,29.094161738805088,101.3067951692242,57.65771915431634,0.0,0.0,-0.9618320610687023,-1.251908396946565,0.12213740458015267
4.0,-0.02824363032988053,0.0,0.0,10.127798470176131,9.732429748535155,0.4381389038085937,-2.767697119140625,29.094161738805088,101.3067951692242,57.65771915431634,0.0,0.0,-0.9618320610687023,-1.251908396946565,0.12213740458015267
4.01,-0.02824363032988053,0.0,0.0,10.123507663285825,9.72285294189453,0.3806780639648437,-2.7940333374023436,29.094161738805088,101.3067951692242,57.65771915431634,0.0,0.0,-0.7786259541984732,-1.1755725190839694,0.1984732824427481
4.02,-0.02824363032988053,0.0,0.0,10.123507663285825,9.72285294189453,0.3806780639648437,-2.7940333374023436,29.094161738805088,101.3067951692242,57.65771915431634,0.0,0.0,-0.7786259541984732,-1.1755725190839694,0.1984732824427481
4.02,-0.02824363032988053,0.0,0.0,10.107264873361508,9.720458740234374,0.3758896606445312,-2.7437551025390623,29.094161738805088,101.3067951692242,57.65771915431634,0.0,0.0,-0.7175572519083969,-1.1755725190839694,0.16793893129770993
4.07,-0.02824363032988053,0.0,0.0,10.138092785595902,9.744400756835937,0.39264907226562495,-2.770091320800781,29.094161738805088,101.3067951692242,57.65771915431634,0.0,0.0,-0.8854961832061069,-1.099236641221374,0.1984732824427481
4.09,-0.02824363032988053,0.0,0.0,10.106629660214475,9.710881933593749,0.3950432739257812,-2.7724855224609373,29.094161738805088,101.3067951692242,57.65771915431634,0.0,0.0,-0.549618320610687,-1.099236641221374,0.1984732824427481
4.12,-0.02824363032988053,0.0,0.0,10.106629660214475,9.710881933593749,0.3950432739257812,-2.7724855224609373,29.094161738805088,101.3067951692242,57.65771915431634,0.0,0.0,-0.549618320610687,-1.099236641221374,0.1984732824427481
4.14,-0.02824363032988053,0.0,0.0,10.127619333727734,9.725247143554688,0.4261678955078125,-2.7940333374023436,29.094161738805088,101.3067951692242,57.65771915431634,0.0,0.0,-0.7633587786259542,-1.1755725190839694,0.1984732824427481
4.18,-0.02824363032988053,0.0,0.0,10.138899031368489,9.734823950195311,0.4285620971679687,-2.8012159423828122,29.094161738805088,101.3067951692242,57.65771915431634,0.0,0.0,-1.0229007633587786,-1.251908396946565,0.15267175572519084
4.22,-0.02824363032988053,0.0,0.0,10.195789220657163,9.787496386718749,0.38786066894531246,-2.829946362304687,29.094161738805088,101.3067951692242,57.65771915431634,0.0,0.0,-0.9312977099236641,-1.1145038167938932,0.0916030534351145
4.27,-0.02824363032988053,0.0,0.0,10.170160874653721,9.777919580078125,0.4213794921875,-2.7653029174804686,29.094161738805088,101.3067951692242,57.65771915431634,0.0,0.0,-0.9770992366412213,-1.1450381679389312,0.16793893129770993
4.31,-0.02824363032988053,0.0,0.0,10.08365063637552,9.70369932861328,0.39983167724609375,-2.712630480957031,29.094161738805088,101.3067951692242,57.65771915431634,0.0,0.0,-1.1450381679389312,-1.1755725190839694,0.13740458015267176
4.36,-0.02824363032988053,0.0,0.0,10.19037339341663,9.809044201660155,0.40462008056640625,-2.731784094238281,29.094161738805088,101.3067951692242,57.65771915431634,0.0,0.0,-1.0381679389312977,-1.1450381679389312,0.13740458015267176
4.4,-0.02824363032988053,0.0,0.0,10.10394771317116,9.715670336914062,0.39264907226562495,-2.7461493041992187,29.094161738805088,101.3067951692242,57.65771915431634,0.0,0.0,-0.8396946564885496,-1.1450381679389312,0.2595419847328244
4.45,-0.02824363032988053,0.0,0.0,10.140265431968166,9.756371765136718,0.41898529052734373,-2.731784094238281,29.094161738805088,101.3067951692242,57.65771915431634,0.0,0.0,-0.8244274809160306,-1.1603053435114503,0.12213740458015267
4.5,-0.02824363032988053,0.0,0.0,10.163928887777521,9.775525378417969,0.40462008056640625,-2.7533319091796873,29.094161738805088,101.3067951692242,57.65771915431634,0.0,0.0,-0.916030534351145,-1.1755725190839694,0.183206106870229
4.51,0.07248139353745242,10.07250238673351,0.0,10.163928887777521,9.775525378417969,0.40462008056640625,-2.7533319091796873,29.10517436923401,101.30558555031119,57.60544542583612,0.0,0.0,-0.916030534351145,-1.1755725190839694,0.183206106870229
4.54,0.07248139353745242,0.0,0.0,10.122679522683585,9.732429748535155,0.40940848388671874,-2.7533319091796873,29.10517436923401,101.30558555031119,57.60544542583612,0.0,0.0,-0.5038167938931297,-1.0381679389312977,0.2595419847328244
4.57,0.07248139353745242,0.0,0.0,10.165350851220738,9.765948571777344,0.44053310546874996,-2.786850732421875,29.10517436923401,101.30558555031119,57.60544542583612,0.0,0.0,-0.7480916030534351,-1.083969465648855,0.32061068702290074
4.62,0.07248139353745242,0.0,0.0,10.09176476646532,9.698910925292969,0.40940848388671874,-2.7581203125,29.10517436923401,101.30558555031119,57.60544542583612,0.0,0.0,-0.9465648854961832,-1.1755725190839694,0.3053435114503817
4.67,0.07248139353745242,0.0,0.0,10.142539625604583,9.76116016845703,0.3758896606445312,-2.729389892578125,29.10517436923401,101.30558555031119,57.60544542583612,0.0,0.0,-0.9770992366412213,-1.1603053435114503,0.16793893129770993
4.72,0.07248139353745242,0.0,0.0,10.168629941998244,9.78031378173828,0.4070142822265625,-2.7533319091796873,29.10517436923401,101.30558555031119,57.60544542583612,0.0,0.0,-1.0687022900763359,-1.1450381679389312,0.183206106870229
4.76,0.07248139353745242,0.0,0.0,10.122362121608559,9.739612353515625,0.4070142822265625,-2.7269956909179687,29.10517436923401,101.30558555031119,57.60544542583612,0.0,0.0,-0.9007633587786259,-1.1603053435114503,0.1984732824427481
4.81,0.07248139353745242,0.0,0.0,10.134383002654747,9.734823950195311,0.430956298828125,-2.7844565307617186,29.10517436923401,101.30558555031119,57.60544542583612,0.0,0.0,-0.9618320610687023,-1.1908396946564885,0.0916030534351145
4.86,0.07248139353745242,0.0,0.0,10.166331137305182,9.753977563476562,0.3711012573242187,-2.8419173706054686,29.10517436923401,101.30558555031119,57.60544542583612,0.0,0.0,-0.8549618320610687,-1.1297709923664123,0.21374045801526717
4.9,0.07248139353745242,0.0,0.0,10.166331137305182,9.753977563476562,0.3711012573242187,-2.8419173706054686,29.10517436923401,101.30558555031119,57.60544542583612,0.0,0.0,-0.8549618320610687,-1.1297709923664123,0.21374045801526717
4.91,0.07248139353745242,0.0,0.0,10.13850637620143,9.749189160156249,0.40222587890625,-2.7533319091796873,29.10517436923401,101.30558555031119,57.60544542583612,0.0,0.0,-1.0381679389312977,-1.1755725190839694,0.21374045801526717
4.96,0.07248139353745242,0.0,0.0,10.108906033942912,9.72285294189453,0.39264907226562495,-2.73896669921875,29.10517436923401,101.30558555031119,57.60544542583612,0.0,0.0,-0.6717557251908397,-1.083969465648855,0.2748091603053435
5.0,0.07248139353745242,0.0,0.0,10.101812934990221,9.725247143554688,0.38307226562499996,-2.7054478759765623,29.10517436923401,101.30558555031119,57.60544542583612,0.0,0.0,-0.7786259541984732,-1.0687022900763359,0.12213740458015267
5.04,0.07248139353745242,0.0,0.0,10.125672966206487,9.734823950195311,0.4261678955078125,-2.7533319091796873,29.10517436923401,101.30558555031119,57.60544542583612,0.0,0.0,-0.9770992366412213,-1.1450381679389312,0.183206106870229
5.08,0.07248139353745242,0.0,0.0,10.113877226591393,9.708487731933593,0.41898529052734373,-2.8036101440429686,29.10517436923401,101.30558555031119,57.60544542583612,0.0,0.0,-0.7786259541984732,-1.1755725190839694,0.16793893129770993
5.12,0.07248139353745242,0.0,0.0,10.113877226591393,9.708487731933593,0.41898529052734373,-2.8036101440429686,29.10517436923401,101.30558555031119,57.60544542583612,0.0,0.0,-0.7786259541984732,-1.1755725190839694,0.16793893129770993
5.12,0.07248139353745242,0.0,0.0,10.159591558707227,9.763554370117188,0.38786066894531246,-2.7820623291015623,29.10517436923401,101.30558555031119,57.60544542583612,0.0,0.0,-1.083969465648855,-1.251908396946565,0.12213740458015267
5.17,0.07248139353745242,0.0,0.0,10.194500828985408,9.811438403320311,0.4333505004882812,-2.7341782958984373,29.10517436923401,101.30558555031119,57.60544542583612,0.0,0.0,-0.9312977099236641,-1.1603053435114503,0.07633587786259542
5.22,0.07248139353745242,0.0,0.0,10.101922167149562,9.72285294189453,0.411802685546875,-2.710236279296875,29.10517436923401,101.30558555031119,57.60544542583612,0.0,0.0,-0.8091603053435115,-1.1297709923664123,0.3053435114503817
5.24,0.10237437797187887,1.4946492217212881,0.0,10.101922167149562,9.72285294189453,0.411802685546875,-2.710236279296875,29.131290041024293,101.30522656412002,57.528472573662796,0.0,0.0,-0.8091603053435115,-1.1297709923664123,0.3053435114503817
5.27,0.10237437797187887,0.0,0.0,10.120578997644683,9.725247143554688,0.36391865234375,-2.77727392578125,29.131290041024293,101.30522656412002,57.528472573662796,0.0,0.0,-0.9007633587786259,-1.1297709923664123,0.22900763358778625
5.3,0.10237437797187887,0.0,0.0,10.11211613134891,9.720458740234374,0.4165910888671875,-2.7557261108398436,29.131290041024293,101.30522656412002,57.528472573662796,0.0,0.0,-0.8244274809160306,-1.1145038167938932,0.16793893129770993
5.33,0.10237437797187887,0.0,0.0,10.165868776584425,9.770736975097655,0.3711012573242187,-2.7820623291015623,29.131290041024293,101.30522656412002,57.528472573662796,0.0,0.0,-0.8396946564885496,-1.1145038167938932,0.15267175572519084
5.38,0.10237437797187887,0.0,0.0,10.129097892813602,9.751583361816406,0.39983167724609375,-2.710236279296875,29.131290041024293,101.30522656412002,57.528472573662796,0.0,0.0,-1.0687022900763359,-1.099236641221374,0.16793893129770993
5.42,0.10237437797187887,0.0,0.0,10.157613789990874,9.758765966796874,0.40462008056640625,-2.789244934082031,29.131290041024293,101.30522656412002,57.528472573662796,0.0,0.0,-0.732824427480916,-1.099236641221374,0.1984732824427481
5.47,0.10237437797187887,0.0,0.0,10.121372196704302,9.725247143554688,0.40222587890625,-2.7748797241210936,29.131290041024293,101.30522656412002,57.528472573662796,0.0,0.0,-1.0534351145038168,-1.1297709923664123,0.12213740458015267
5.52,0.10237437797187887,0.0,0.0,10.139797077492958,9.739612353515625,0.41898529052734373,-2.789244934082031,29.131290041024293,101.30522656412002,57.528472573662796,0.0,0.0,-0.9618320610687023,-1.1450381679389312,0.15267175572519084
5.57,0.10237437797187887,0.0,0.0,10.136503004479104,9.751583361816406,0.42377369384765623,-2.7341782958984373,29.131290041024293,101.30522656412002,57.528472573662796,0.0,0.0,-1.0687022900763359,-1.1755725190839694,0.1984732824427481
5.6,0.10237437797187887,0.0,0.0,10.134918629880952,9.727641345214844,0.3854664672851562,-2.817975354003906,29.131290041024293,101.30522656412002,57.528472573662796,0.0,0.0,-1.0381679389312977,-1.2061068702290076,0.183206106870229
5.64,0.10237437797187887,0.0,0.0,10.161768351985852,9.763554370117188,0.3758896606445312,-2.7916391357421872,29.131290041024293,101.30522656412002,57.528472573662796,0.0,0.0,-0.8549618320610687,-1.2213740458015268,0.1984732824427481
5.68,0.10237437797187887,0.0,0.0,10.175942069064357,9.777919580078125,0.41898529052734373,-2.786850732421875,29.131290041024293,101.30522656412002,57.528472573662796,0.0,0.0,-0.5801526717557252,-1.0381679389312977,0.13740458015267176
5.72,0.10237437797187887,0.0,0.0,10.14591168318204,9.749189160156249,0.42377369384765623,-2.77727392578125,29.131290041024293,101.30522656412002,57.528472573662796,0.0,0.0,-0.7938931297709924,-1.1450381679389312,0.15267175572519084
5.77,0.10237437797187887,0.0,0.0,10.161038104913596,9.7683427734375,0.373495458984375,-2.7724855224609373,29.131290041024293,101.30522656412002,57.528472573662796,0.0,0.0,-0.732824427480916,-1.083969465648855,0.12213740458015267
5.82,0.10237437797187887,0.0,0.0,10.172134795040408,9.775525378417969,0.41419688720703124,-2.7820623291015623,29.131290041024293,101.30522656412002,57.528472573662796,0.0,0.0,-0.7938931297709924,-1.1908396946564885,0.24427480916030533
5.86,0.10237437797187887,0.0,0.0,10.144734768889128,9.74200655517578,0.41898529052734373,-2.798821740722656,29.131290041024293,101.30522656412002,57.528472573662796,0.0,0.0,-0.5648854961832062,-1.1297709923664123,0.1984732824427481
5.89,0.10237437797187887,0.0,0.0,10.153252591925915,9.749189160156249,0.3758896606445312,-2.8107927490234372,29.131290041024293,101.30522656412002,57.528472573662796,0.0,0.0,-0.9007633587786259,-1.1603053435114503,0.1984732824427481
5.92,0.10237437797187887,0.0,0.0,10.147105408285015,9.765948571777344,0.42377369384765623,-2.722207287597656,29.131290041024293,101.30522656412002,57.528472573662796,0.0,0.0,-0.5648854961832062,-1.1450381679389312,0.16793893129770993
5.95,0.10237437797187887,0.0,0.0,10.159733175873916,9.770736975097655,0.36391865234375,-2.760514514160156,29.131290041024293,101.30522656412002,57.528472573662796,0.0,0.0,-0.8091603053435115,-1.1450381679389312,0.16793893129770993
5.97,0.10651974008897835,0.20726810585497854,0.0,10.159733175873916,9.770736975097655,0.36391865234375,-2.760514514160156,28.967673908029063,101.3051767823617,57.45725623532822,0.0,0.0,-0.8091603053435115,-1.1450381679389312,0.16793893129770993
5.97,0.10651974008897835,0.20726810585497854,0.0,10.159733175873916,9.770736975097655,0.36391865234375,-2.760514514160156,28.967673908029063,101.3051767823617,57.45725623532822,0.0,0.0,-0.8091603053435115,-1.1450381679389312,0.16793893129770993
6.0,0.10651974008897835,0.0,0.0,10.144018270285054,9.74200655517578,0.4333505004882812,-2.7940333374023436,28.967673908029063,101.3051767823617,57.45725623532822,0.0,0.0,-0.9618320610687023,-1.1297709923664123,0.10687022900763359
6.05,0.10651974008897835,0.0,0.0,10.125274136857989,9.727641345214844,0.40940848388671874,-2.779668127441406,28.967673908029063,101.3051767823617,57.45725623532822,0.0,0.0,-0.8244274809160306,-1.1908396946564885,0.183206106870229
6.08,0.10651974008897835,0.0,0.0,10.157661193231432,9.775525378417969,0.40940848388671874,-2.729389892578125,28.967673908029063,101.3051767823617,57.45725623532822,0.0,0.0,-0.6412213740458015,-1.0687022900763359,0.4122137404580153
6.12,0.10651974008897835,0.0,0.0,10.157661193231432,9.775525378417969,0.40940848388671874,-2.729389892578125,28.967673908029063,101.3051767823617,57.45725623532822,0.0,0.0,-0.6412213740458015,-1.0687022900763359,0.4122137404580153
6.13,0.10651974008897835,0.0,0.0,10.131230599378467,9.734823950195311,0.40222587890625,-2.77727392578125,28.967673908029063,101.3051767823617,57.45725623532822,0.0,0.0,-0.9923664122137404,-1.1755725190839694,0.15267175572519084
6.16,0.10651974008897835,0.0,0.0,10.146462237835793,9.753977563476562,0.40462008056640625,-2.7653029174804686,28.967673908029063,101.3051767823617,57.45725623532822,0.0,0.0,-0.7022900763358778,-1.083969465648855,0.24427480916030533
6.21,0.10651974008897835,0.0,0.0,10.132030036447507,9.732429748535155,0.39743747558593745,-2.789244934082031,28.967673908029063,101.3051767823617,57.45725623532822,0.0,0.0,-0.9465648854961832,-1.1297709923664123,0.12213740458015267
6.24,0.10651974008897835,0.0,0.0,10.136085656221924,9.751583361816406,0.3806780639648437,-2.73896669921875,28.967673908029063,101.3051767823617,57.45725623532822,0.0,0.0,-0.8396946564885496,-1.083969465648855,0.16793893129770993
6.28,0.10651974008897835,0.0,0.0,10.21061551348223,9.809044201660155,0.4070142822265625,-2.806004345703125,28.967673908029063,101.3051767823617,57.45725623532822,0.0,0.0,-0.8854961832061069,-1.1603053435114503,0.183206106870229
6.33,0.10651974008897835,0.0,0.0,10.14010912778011,9.74200655517578,0.3854664672851562,-2.786850732421875,28.967673908029063,101.3051767823617,57.45725623532822,0.0,0.0,-1.0687022900763359,-1.1450381679389312,0.061068702290076333
6.36,0.10651974008897835,0.0,0.0,10.191828506616346,9.777919580078125,0.41898529052734373,-2.844311572265625,28.967673908029063,101.3051767823617,57.45725623532822,0.0,0.0,-1.0381679389312977,-1.1755725190839694,0.13740458015267176
6.41,0.10651974008897835,0.0,0.0,10.121801761249335,9.720458740234374,0.4285620971679687,-2.789244934082031,28.967673908029063,101.3051767823617,57.45725623532822,0.0,0.0,-1.083969465648855,-1.1297709923664123,0.1984732824427481
6.45,0.10651974008897835,0.0,0.0,10.141847840875354,9.76116016845703,0.35673604736328124,-2.729389892578125,28.967673908029063,101.3051767823617,57.45725623532822,0.0,0.0,-0.8702290076335878,-1.1450381679389312,0.1984732824427481
6.48,0.10651974008897835,0.0,0.0,10.137941536697738,9.756371765136718,0.40940848388671874,-2.7246014892578123,28.967673908029063,101.3051767823617,57.45725623532822,0.0,0.0,-0.8854961832061069,-1.1297709923664123,0.07633587786259542
6.51,0.10651974008897835,0.0,0.0,10.134339449882892,9.732429748535155,0.4525041137695312,-2.789244934082031,28.967673908029063,101.3051767823617,57.45725623532822,0.0,0.0,-0.8549618320610687,-1.0687022900763359,0.13740458015267176
6.55,0.10651974008897835,0.0,0.0,10.153524992335626,9.751583361816406,0.44053310546874996,-2.7940333374023436,28.967673908029063,101.3051767823617,57.45725623532822,0.0,0.0,-0.9312977099236641,-1.1755725190839694,0.15267175572519084
6.57,0.1217435343076978,0.7611897109359547,0.0,10.153524992335626,9.751583361816406,0.44053310546874996,-2.7940333374023436,29.077485472414992,101.30499395960253,57.43975943810054,0.0,0.0,-0.9312977099236641,-1.1755725190839694,0.15267175572519084
6.58,0.1217435343076978,0.0,0.0,10.172405281053132,9.770736975097655,0.40462008056640625,-2.8012159423828122,29.077485472414992,101.30499395960253,57.43975943810054,0.0,0.0,-0.7938931297709924,-1.1145038167938932,0.21374045801526717
6.61,0.1217435343076978,0.0,0.0,10.144020248071675,9.756371765136718,0.39983167724609375,-2.748543505859375,29.077485472414992,101.30499395960253,57.43975943810054,0.0,0.0,-0.7175572519083969,-1.1145038167938932,0.2748091603053435
6.65,0.1217435343076978,0.0,0.0,10.141916512792557,9.746794958496093,0.44532150878906246,-2.767697119140625,29.077485472414992,101.30499395960253,57.43975943810054,0.0,0.0,-0.6564885496183206,-1.1450381679389312,0.16793893129770993
6.69,0.1217435343076978,0.0,0.0,10.133646539699242,9.74200655517578,0.38786066894531246,-2.7629087158203123,29.077485472414992,101.30499395960253,57.43975943810054,0.0,0.0,-0.8396946564885496,-1.1755725190839694,0.21374045801526717
6.72,0.1217435343076978,0.0,0.0,10.141096093186379,9.751583361816406,0.40940848388671874,-2.7533319091796873,29.077485472414992,101.30499395960253,57.43975943810054,0.0,0.0,-0.8702290076335878,-1.1603053435114503,0.10687022900763359
6.77,0.1217435343076978,0.0,0.0,10.120470250050456,9.730035546875,0.37828386230468747,-2.7581203125,29.077485472414992,101.30499395960253,57.43975943810054,0.0,0.0,-0.9465648854961832,-1.1908396946564885,0.1984732824427481
6.82,0.1217435343076978,0.0,0.0,10.171707637897489,9.797073193359374,0.3854664672851562,-2.7078420776367187,29.077485472414992,101.30499395960253,57.43975943810054,0.0,0.0,-1.083969465648855,-1.2061068702290076,0.10687022900763359
6.85,0.1217435343076978,0.0,0.0,10.165267958157665,9.765948571777344,0.3902548706054687,-2.7940333374023436,29.077485472414992,101.30499395960253,57.43975943810054,0.0,0.0,-0.6106870229007634,-1.0687022900763359,0.24427480916030533
6.89,0.1217435343076978,0.0,0.0,10.133958779377052,9.734823950195311,0.38786066894531246,-2.789244934082031,29.077485472414992,101.30499395960253,57.43975943810054,0.0,0.0,-0.9923664122137404,-1.1145038167938932,0.1984732824427481
6.93,0.1217435343076978,0.0,0.0,10.138128123798316,9.732429748535155,0.4333505004882812,-2.806004345703125,29.077485472414992,101.30499395960253,57.43975943810054,0.0,0.0,-0.5038167938931297,-1.0534351145038168,0.0916030534351145
6.96,0.1217435343076978,0.0,0.0,10.157909492305912,9.775525378417969,0.430956298828125,-2.7269956909179687,29.077485472414992,101.30499395960253,57.43975943810054,0.0,0.0,-0.916030534351145,-1.1450381679389312,0.10687022900763359
6.97,0.1217435343076978,0.0,0.0,10.157909492305912,9.775525378417969,0.430956298828125,-2.7269956909179687,29.077485472414992,101.30499395960253,57.43975943810054,0.0,0.0,-0.916030534351145,-1.1450381679389312,0.10687022900763359
6.99,0.1217435343076978,0.0,0.0,10.165037602116792,9.775525378417969,0.39983167724609375,-2.7581203125,29.077485472414992,101.30499395960253,57.43975943810054,0.0,0.0,-0.7938931297709924,-1.1297709923664123,0.15267175572519084
7.02,0.1217435343076978,0.0,0.0,10.130952790128957,9.753977563476562,0.40462008056640625,-2.7078420776367187,29.077485472414992,101.30499395960253,57.43975943810054,0.0,0.0,-0.8396946564885496,-1.099236641221374,0.13740458015267176
7.06,0.1217435343076978,0.0,0.0,10.177193946713361,9.789890588378906,0.4070142822265625,-2.750937707519531,29.077485472414992,101.30499395960253,57.43975943810054,0.0,0.0,-0.8549618320610687,-1.1603053435114503,0.16793893129770993
7.11,0.1217435343076978,0.0,0.0,10.115344477297567,9.732429748535155,0.38786066894531246,-2.729389892578125,29.077485472414992,101.30499395960253,57.43975943810054,0.0,0.0,-0.916030534351145,-1.1908396946564885,0.22900763358778625
7.12,0.1217435343076978,0.0,0.0,10.115344477297567,9.732429748535155,0.38786066894531246,-2.729389892578125,29.077485472414992,101.30499395960253,57.43975943810054,0.0,0.0,-0.916030534351145,-1.1908396946564885,0.22900763358778625
7.15,0.1217435343076978,0.0,0.0,10.12287743321377,9.725247143554688,0.4070142822265625,-2.779668127441406,29.077485472414992,101.30499395960253,57.43975943810054,0.0,0.0,-0.9770992366412213,-1.1755725190839694,0.2748091603053435
7.18,0.1217435343076978,0.0,0.0,10.151954284783802,9.751583361816406,0.41898529052734373,-2.7916391357421872,29.077485472414992,101.30499395960253,57.43975943810054,0.0,0.0,-0.6106870229007634,-1.1755725190839694,0.21374045801526717
7.23,0.1217435343076978,0.0,0.0,10.133930780016009,9.744400756835937,0.41898529052734373,-2.750937707519531,29.077485472414992,101.30499395960253,57.43975943810054,0.0,0.0,-0.8549618320610687,-1.1450381679389312,0.13740458015267176
7.27,0.1217435343076978,0.0,0.0,10.09811990927272,9.720458740234374,0.3902548706054687,-2.7078420776367187,29.077485472414992,101.30499395960253,57.43975943810054,0.0,0.0,-0.8854961832061069,-1.1450381679389312,0.16793893129770993
7.3,0.08458631877593437,-1.2385738510587707,0.0,10.09811990927272,9.720458740234374,0.3902548706054687,-2.7078420776367187,29.17187947354978,101.30544018159684,57.42673110428764,0.0,0.0,-0.8854961832061069,-1.1450381679389312,0.16793893129770993
7.31,0.08458631877593437,0.0,0.0,10.128586293344553,9.737218151855469,0.40940848388671874,-2.7581203125,29.17187947354978,101.30544018159684,57.42673110428764,0.0,0.0,-0.9618320610687023,-1.1297709923664123,0.061068702290076333
7.36,0.08458631877593437,0.0,0.0,10.144345447455821,9.76116016845703,0.354341845703125,-2.73896669921875,29.17187947354978,101.30544018159684,57.42673110428764,0.0,0.0,-0.9618320610687023,-1.1450381679389312,0.10687022900763359
7.41,0.08458631877593437,0.0,0.0,10.111856503987333,9.734823950195311,0.38786066894531246,-2.7078420776367187,29.17187947354978,101.30544018159684,57.42673110428764,0.0,0.0,-0.9465648854961832,-1.1297709923664123,0.22900763358778625
7.44,0.08458631877593437,0.0,0.0,10.126698697854362,9.739612353515625,0.40222587890625,-2.7437551025390623,29.17187947354978,101.30544018159684,57.42673110428764,0.0,0.0,-0.5343511450381679,-1.0076335877862594,0.07633587786259542
7.49,0.08458631877593437,0.0,0.0,10.159683243353197,9.763554370117188,0.3902548706054687,-2.7820623291015623,29.17187947354978,101.30544018159684,57.42673110428764,0.0,0.0,-0.7175572519083969,-1.1145038167938932,0.21374045801526717
7.53,0.08458631877593437,0.0,0.0,10.190672363860157,9.787496386718749,0.40940848388671874,-2.808398547363281,29.17187947354978,101.30544018159684,57.42673110428764,0.0,0.0,-0.7633587786259542,-1.2061068702290076,0.22900763358778625
7.57,0.08458631877593437,0.0,0.0,10.10727309684138,9.70369932861328,0.40222587890625,-2.798821740722656,29.17187947354978,101.30544018159684,57.42673110428764,0.0,0.0,-0.8549618320610687,-1.1145038167938932,0.21374045801526717
7.61,0.08458631877593437,0.0,0.0,10.163629976642868,9.7683427734375,0.3902548706054687,-2.779668127441406,29.17187947354978,101.30544018159684,57.42673110428764,0.0,0.0,-0.7786259541984732,-1.1297709923664123,0.13740458015267176
7.65,0.08458631877593437,0.0,0.0,10.169429539222572,9.756371765136718,0.40940848388671874,-2.839523168945312,29.17187947354978,101.30544018159684,57.42673110428764,0.0,0.0,-0.8549618320610687,-1.083969465648855,0.22900763358778625
7.68,0.08458631877593437,0.0,0.0,10.118367850091115,9.730035546875,0.42377369384765623,-2.7437551025390623,29.17187947354978,101.30544018159684,57.42673110428764,0.0,0.0,-0.7938931297709924,-1.0534351145038168,0.16793893129770993
7.72,0.08458631877593437,0.0,0.0,10.136601118410722,9.744400756835937,0.38786066894531246,-2.7653029174804686,29.17187947354978,101.30544018159684,57.42673110428764,0.0,0.0,-0.9007633587786259,-1.1755725190839694,0.1984732824427481
7.75,0.08458631877593437,0.0,0.0,10.114722522734148,9.737218151855469,0.40222587890625,-2.7078420776367187,29.17187947354978,101.30544018159684,57.42673110428764,0.0,0.0,-0.8091603053435115,-1.1297709923664123,0.183206106870229
7.8,0.08458631877593437,0.0,0.0,10.125681174736393,9.744400756835937,0.4070142822265625,-2.722207287597656,29.17187947354978,101.30544018159684,57.42673110428764,0.0,0.0,-0.8396946564885496,-1.099236641221374,0.21374045801526717
7.84,0.08458631877593437,0.0,0.0,10.123856453000759,9.737218151855469,0.3711012573242187,-2.7461493041992187,29.17187947354978,101.30544018159684,57.42673110428764,0.0,0.0,-0.8549618320610687,-1.1755725190839694,0.10687022900763359
7.87,0.08458631877593437,0.0,0.0,10.121476403885147,9.720458740234374,0.40462008056640625,-2.7916391357421872,29.17187947354978,101.30544018159684,57.42673110428764,0.0,0.0,-0.6106870229007634,-1.1297709923664123,0.3053435114503817
7.91,0.08458631877593437,0.0,0.0,10.142148241756168,9.749189160156249,0.411802685546875,-2.7653029174804686,29.17187947354978,101.30544018159684,57.42673110428764,0.0,0.0,-0.9465648854961832,-1.1145038167938932,0.21374045801526717
7.96,0.08458631877593437,0.0,0.0,10.11075443067682,9.732429748535155,0.40222587890625,-2.710236279296875,29.17187947354978,101.30544018159684,57.42673110428764,0.0,0.0,-1.0687022900763359,-1.2213740458015268,0.12213740458015267
8.01,0.08458631877593437,0.0,0.0,10.158606672374228,9.765948571777344,0.43574470214843747,-2.7629087158203123,29.17187947354978,101.30544018159684,57.42673110428764,0.0,0.0,-0.9007633587786259,-1.1450381679389312,0.16793893129770993
8.04,0.08240420263976866,-0.07273720453885826,0.0,10.158606672374228,9.765948571777344,0.43574470214843747,-2.7629087158203123,29.016758716940785,101.30546638673731,57.37699321520969,0.0,0.0,-0.9007633587786259,-1.1450381679389312,0.16793893129770993
8.04,0.08240420263976866,-0.07273720453885826,0.0,10.158606672374228,9.765948571777344,0.43574470214843747,-2.7629087158203123,29.016758716940785,101.30546638673731,57.37699321520969,0.0,0.0,-0.9007633587786259,-1.1450381679389312,0.16793893129770993
8.04,0.08240420263976866,-0.07273720453885826,0.0,10.129421307686721,9.732429748535155,0.44532150878906246,-2.7724855224609373,29.016758716940785,101.30546638673731,57.37699321520969,0.0,0.0,-1.0381679389312977,-1.1908396946564885,0.15267175572519084
8.09,0.08240420263976866,0.0,0.0,10.138281631519881,9.730035546875,0.4285620971679687,-2.81558115234375,29.016758716940785,101.30546638673731,57.37699321520969,0.0,0.0,-0.9007633587786259,-1.1908396946564885,0.21374045801526717
8.12,0.08240420263976866,0.0,0.0,10.138281631519881,9.730035546875,0.4285620971679687,-2.81558115234375,29.016758716940785,101.30546638673731,57.37699321520969,0.0,0.0,-0.9007633587786259,-1.1908396946564885,0.21374045801526717
8.13,0.08240420263976866,0.0,0.0,10.140709175756102,9.753977563476562,0.4381389038085937,-2.73896669921875,29.016758716940785,101.30546638673731,57.37699321520969,0.0,0.0,-0.9312977099236641,-1.1603053435114503,0.21374045801526717
8.17,0.08240420263976866,0.0,0.0,10.162169133500973,9.76116016845703,0.4429273071289062,-2.7916391357421872,29.016758716940785,101.30546638673731,57.37699321520969,0.0,0.0,-0.9007633587786259,-1.2213740458015268,0.15267175572519084
8.21,0.08240420263976866,0.0,0.0,10.163825961822557,9.758765966796874,0.4429273071289062,-2.806004345703125,29.016758716940785,101.30546638673731,57.37699321520969,0.0,0.0,-1.0534351145038168,-1.1145038167938932,0.1984732824427481
8.26,0.08240420263976866,0.0,0.0,10.144618934610422,9.746794958496093,0.38307226562499996,-2.786850732421875,29.016758716940785,101.30546638673731,57.37699321520969,0.0,0.0,-0.9770992366412213,-1.1297709923664123,0.04580152671755725
8.29,0.08240420263976866,0.0,0.0,10.163744748278582,9.758765966796874,0.39264907226562495,-2.8131869506835936,29.016758716940785,101.30546638673731,57.37699321520969,0.0,0.0,-0.8244274809160306,-1.1450381679389312,0.061068702290076333
8.33,0.08240420263976866,0.0,0.0,10.133357483160948,9.737218151855469,0.41419688720703124,-2.7748797241210936,29.016758716940785,101.30546638673731,57.37699321520969,0.0,0.0,-0.4122137404580153,-0.9923664122137404,0.13740458015267176
8.37,0.08240420263976866,0.0,0.0,10.192960055228008,9.80665,0.41419688720703124,-2.748543505859375,29.016758716940785,101.30546638673731,57.37699321520969,0.0,0.0,-0.8702290076335878,-1.1145038167938932,0.0916030534351145
8.41,0.08240420263976866,0.0,0.0,10.094809113346908,9.708487731933593,0.4333505004882812,-2.731784094238281,29.016758716940785,101.30546638673731,57.37699321520969,0.0,0.0,-0.8396946564885496,-1.2213740458015268,0.1984732824427481
8.45,0.08240420263976866,0.0,0.0,10.135238182800842,9.737218151855469,0.37828386230468747,-2.786850732421875,29.016758716940785,101.30546638673731,57.37699321520969,0.0,0.0,-0.8854961832061069,-1.083969465648855,0.13740458015267176
8.5,0.08240420263976866,0.0,0.0,10.116354824009612,9.72285294189453,0.39983167724609375,-2.7653029174804686,29.016758716940785,101.30546638673731,57.37699321520969,0.0,0.0,-0.8244274809160306,-1.1450381679389312,0.16793893129770993
8.53,0.08240420263976866,0.0,0.0,10.14781914700216,9.765948571777344,0.44053310546874996,-2.722207287597656,29.016758716940785,101.30546638673731,57.37699321520969,0.0,0.0,-0.9007633587786259,-1.1755725190839694,0.16793893129770993
8.57,0.08240420263976866,0.0,0.0,10.123971675533866,9.732429748535155,0.39264907226562495,-2.760514514160156,29.016758716940785,101.30546638673731,57.37699321520969,0.0,0.0,-0.9007633587786259,-1.1908396946564885,0.15267175572519084
8.61,0.06488867706372026,-0.4378881394012195,0.0,10.123971675533866,9.732429748535155,0.39264907226562495,-2.760514514160156,29.166215830711735,101.30567673174794,57.38551570690389,0.0,0.0,-0.9007633587786259,-1.1908396946564885,0.15267175572519084
8.61,0.06488867706372026,-0.4378881394012195,0.0,10.138363331735196,9.746794958496093,0.373495458984375,-2.7653029174804686,29.166215830711735,101.30567673174794,57.38551570690389,0.0,0.0,-1.0687022900763359,-1.1755725190839694,0.07633587786259542
8.64,0.06488867706372026,0.0,0.0,10.118589071565209,9.732429748535155,0.40462008056640625,-2.73896669921875,29.166215830711735,101.30567673174794,57.38551570690389,0.0,0.0,-0.6259541984732825,-1.0687022900763359,0.21374045801526717
8.69,0.06488867706372026,0.0,0.0,10.142641072094083,9.758765966796874,0.3711012573242187,-2.73896669921875,29.166215830711735,101.30567673174794,57.38551570690389,0.0,0.0,-1.0076335877862594,-1.1603053435114503,0.22900763358778625
8.73,0.06488867706372026,0.0,0.0,10.094524339299873,9.701305126953125,0.38786066894531246,-2.7629087158203123,29.166215830711735,101.30567673174794,57.38551570690389,0.0,0.0,-1.0381679389312977,-1.1297709923664123,0.12213740458015267
8.76,0.06488867706372026,0.0,0.0,10.14550404445418,9.756371765136718,0.38786066894531246,-2.7557261108398436,29.166215830711735,101.30567673174794,57.38551570690389,0.0,0.0,-0.8702290076335878,-1.1603053435114503,0.21374045801526717
8.81,0.06488867706372026,0.0,0.0,10.169971493414778,9.7683427734375,0.4333505004882812,-2.7964275390625,29.166215830711735,101.30567673174794,57.38551570690389,0.0,0.0,-0.916030534351145,-1.1297709923664123,0.15267175572519084
8.85,0.06488867706372026,0.0,0.0,10.144719230221236,9.739612353515625,0.4261678955078125,-2.806004345703125,29.166215830711735,101.30567673174794,57.38551570690389,0.0,0.0,-1.083969465648855,-1.099236641221374,0.15267175572519084
8.9,0.06488867706372026,0.0,0.0,10.129534769250517,9.74200655517578,0.430956298828125,-2.741360900878906,29.166215830711735,101.30567673174794,57.38551570690389,0.0,0.0,-0.9312977099236641,-1.1450381679389312,0.24427480916030533
8.94,0.06488867706372026,0.0,0.0,10.122192516062103,9.74200655517578,0.3399766357421875,-2.7269956909179687,29.166215830711735,101.30567673174794,57.38551570690389,0.0,0.0,-0.7175572519083969,-1.1297709923664123,0.2900763358778626
8.98,0.06488867706372026,0.0,0.0,10.145131138134097,9.744400756835937,0.40462008056640625,-2.7940333374023436,29.166215830711735,101.30567673174794,57.38551570690389,0.0,0.0,-0.916030534351145,-1.1450381679389312,0.1984732824427481
9.02,0.06488867706372026,0.0,0.0,10.148063168035414,9.765948571777344,0.39983167724609375,-2.729389892578125,29.166215830711735,101.30567673174794,57.38551570690389,0.0,0.0,-1.0534351145038168,-1.1603053435114503,0.2595419847328244
9.04,0.06488867706372026,0.0,0.0,10.167760375589092,9.7683427734375,0.411802685546875,-2.7916391357421872,29.166215830711735,101.30567673174794,57.38551570690389,0.0,0.0,-0.8702290076335878,-1.1603053435114503,0.21374045801526717
9.09,0.06488867706372026,0.0,0.0,10.117559118395084,9.734823950195311,0.4333505004882812,-2.722207287597656,29.166215830711735,101.30567673174794,57.38551570690389,0.0,0.0,-0.8549618320610687,-1.1450381679389312,0.15267175572519084
9.11,0.06488867706372026,0.0,0.0,10.117559118395084,9.734823950195311,0.4333505004882812,-2.722207287597656,29.166215830711735,101.30567673174794,57.38551570690389,0.0,0.0,-0.8549618320610687,-1.1450381679389312,0.15267175572519084
9.12,0.06488867706372026,0.0,0.0,10.117559118395084,9.734823950195311,0.4333505004882812,-2.722207287597656,29.166215830711735,101.30567673174794,57.38551570690389,0.0,0.0,-0.8549618320610687,-1.1450381679389312,0.15267175572519084
9.14,0.06488867706372026,0.0,0.0,10.129988319865086,9.737218151855469,0.411802685546875,-2.7629087158203123,29.166215830711735,101.30567673174794,57.38551570690389,0.0,0.0,-0.9312977099236641,-1.2061068702290076,0.13740458015267176
9.17,0.06488867706372026,0.0,0.0,10.112437538521036,9.72285294189453,0.39983167724609375,-2.750937707519531,29.166215830711735,101.30567673174794,57.38551570690389,0.0,0.0,-0.8091603053435115,-1.1297709923664123,0.15267175572519084
9.21,0.06488867706372026,0.0,0.0,10.104414325536707,9.718064538574218,0.411802685546875,-2.7365724975585937,29.166215830711735,101.30567673174794,57.38551570690389,0.0,0.0,-0.9923664122137404,-1.2366412213740459,0.1984732824427481
9.26,0.06488867706372026,0.0,0.0,10.169671914402135,9.777919580078125,0.40940848388671874,-2.7653029174804686,29.166215830711735,101.30567673174794,57.38551570690389,0.0,0.0,-1.1603053435114503,-1.1603053435114503,0.15267175572519084
9.29,0.06488867706372026,0.0,0.0,10.163961598273714,9.775525378417969,0.4213794921875,-2.750937707519531,29.166215830711735,101.30567673174794,57.38551570690389,0.0,0.0,-0.5038167938931297,-0.9923664122137404,0.15267175572519084
9.33,0.06488867706372026,0.0,0.0,10.15757767308768,9.76116016845703,0.411802685546875,-2.779668127441406,29.166215830711735,101.30567673174794,57.38551570690389,0.0,0.0,-0.9770992366412213,-1.1755725190839694,0.15267175572519084
9.35,0.08420086929560977,0.9656096115944962,0.0,10.15757767308768,9.76116016845703,0.411802685546875,-2.779668127441406,29.230403803582156,101.30544481047829,57.36131480789405,0.0,0.0,-0.9770992366412213,-1.1755725190839694,0.15267175572519084
9.36,0.08420086929560977,0.0,0.0,10.105136752145409,9.710881933593749,0.4070142822265625,-2.7653029174804686,29.230403803582156,101.30544481047829,57.36131480789405,0.0,0.0,-1.0534351145038168,-1.1908396946564885,0.22900763358778625
9.41,0.08420086929560977,0.0,0.0,10.156213601649274,9.753977563476562,0.40222587890625,-2.8012159423828122,29.230403803582156,101.30544481047829,57.36131480789405,0.0,0.0,-0.8091603053435115,-1.1450381679389312,0.2900763358778626
9.46,0.08420086929560977,0.0,0.0,10.16866489222161,9.775525378417969,0.39264907226562495,-2.7724855224609373,29.230403803582156,101.30544481047829,57.36131480789405,0.0,0.0,-1.1603053435114503,-1.2213740458015268,0.16793893129770993
9.51,0.08420086929560977,0.0,0.0,10.123071376116906,9.732429748535155,0.3687070556640625,-2.760514514160156,29.230403803582156,101.30544481047829,57.36131480789405,0.0,0.0,-0.8396946564885496,-1.1755725190839694,0.15267175572519084
9.54,0.08420086929560977,0.0,0.0,10.15823678635827,9.756371765136718,0.411802685546875,-2.798821740722656,29.230403803582156,101.30544481047829,57.36131480789405,0.0,0.0,-0.8702290076335878,-1.1297709923664123,0.12213740458015267
9.57,0.08420086929560977,0.0,0.0,10.134383002654747,9.734823950195311,0.430956298828125,-2.7844565307617186,29.230403803582156,101.30544481047829,57.36131480789405,0.0,0.0,-0.6870229007633588,-1.1297709923664123,0.1984732824427481
9.59,0.08420086929560977,0.0,0.0,10.181929410851012,9.789890588378906,0.411802685546875,-2.767697119140625,29.230403803582156,101.30544481047829,57.36131480789405,0.0,0.0,-0.48854961832061067,-1.0687022900763359,0.22900763358778625
9.63,0.08420086929560977,0.0,0.0,10.14548031446036,9.746794958496093,0.4213794921875,-2.7844565307617186,29.230403803582156,101.30544481047829,57.36131480789405,0.0,0.0,-0.8702290076335878,-1.1603053435114503,0.22900763358778625
9.68,0.08420086929560977,0.0,0.0,10.129455261405148,9.734823950195311,0.4070142822265625,-2.770091320800781,29.230403803582156,101.30544481047829,57.36131480789405,0.0,0.0,-0.8244274809160306,-1.1297709923664123,0.183206106870229
9.72,0.08420086929560977,0.0,0.0,10.115814813895764,9.725247143554688,0.4261678955078125,-2.750937707519531,29.230403803582156,101.30544481047829,57.36131480789405,0.0,0.0,-0.8244274809160306,-1.0687022900763359,0.24427480916030533
9.77,0.08420086929560977,0.0,0.0,10.129009892753912,9.746794958496093,0.36631285400390623,-2.731784094238281,29.230403803582156,101.30544481047829,57.36131480789405,0.0,0.0,-1.0534351145038168,-1.1603053435114503,0.15267175572519084
9.82,0.08420086929560977,0.0,0.0,10.149759290997176,9.758765966796874,0.38786066894531246,-2.7629087158203123,29.230403803582156,101.30544481047829,57.36131480789405,0.0,0.0,-0.8244274809160306,-1.1450381679389312,0.15267175572519084
9.84,0.08420086929560977,0.0,0.0,10.131887183425986,9.734823950195311,0.40222587890625,-2.779668127441406,29.230403803582156,101.30544481047829,57.36131480789405,0.0,0.0,-0.7633587786259542,-1.1450381679389312,0.21374045801526717
9.89,0.08420086929560977,0.0,0.0,10.148142247666911,9.756371765136718,0.4213794921875,-2.760514514160156,29.230403803582156,101.30544481047829,57.36131480789405,0.0,0.0,-0.9618320610687023,-1.2061068702290076,0.1984732824427481
9.9,0.0986310238258159,1.4430154530206438,0.0,10.148142247666911,9.756371765136718,0.4213794921875,-2.760514514160156,29.122479934037802,101.30527151817147,57.311802492338664,0.0,0.0,-0.9618320610687023,-1.2061068702290076,0.1984732824427481
9.93,0.0986310238258159,0.0,0.0,10.144859077375465,9.756371765136718,0.40462008056640625,-2.750937707519531,29.122479934037802,101.30527151817147,57.311802492338664,0.0,0.0,-0.8854961832061069,-1.1450381679389312,0.1984732824427481
9.95,0.0986310238258159,0.0,0.0,10.165419364364682,9.777919580078125,0.4165910888671875,-2.748543505859375,29.122479934037802,101.30527151817147,57.311802492338664,0.0,0.0,-1.0534351145038168,-1.2061068702290076,0.16793893129770993
10.0,0.0986310238258159,0.0,0.0,10.15054230374866,9.749189160156249,0.45489831542968745,-2.789244934082031,29.122479934037802,101.30527151817147,57.311802492338664,0.0,0.0,-0.8702290076335878,-1.1297709923664123,0.1984732824427481
10.05,0.0986310238258159,0.0,0.0,10.155589352293138,9.758765966796874,0.3687070556640625,-2.786850732421875,29.122479934037802,101.30527151817147,57.311802492338664,0.0,0.0,-0.9007633587786259,-1.0687022900763359,0.2595419847328244
10.08,0.0986310238258159,0.0,0.0,10.179118637037456,9.792284790039062,0.39743747558593745,-2.750937707519531,29.122479934037802,101.30527151817147,57.311802492338664,0.0,0.0,-0.7938931297709924,-1.0534351145038168,0.10687022900763359
10.12,0.0986310238258159,0.0,0.0,10.106045739341091,9.72285294189453,0.40222587890625,-2.7269956909179687,29.122479934037802,101.30527151817147,57.311802492338664,0.0,0.0,-0.9465648854961832,-1.1603053435114503,0.2595419847328244
10.12,0.0986310238258159,0.0,0.0,10.106045739341091,9.72285294189453,0.40222587890625,-2.7269956909179687,29.122479934037802,101.30527151817147,57.311802492338664,0.0,0.0,-0.9465648854961832,-1.1603053435114503,0.2595419847328244
10.17,0.0986310238258159,0.0,0.0,10.160266056248508,9.765948571777344,0.36152445068359373,-2.779668127441406,29.122479934037802,101.30527151817147,57.311802492338664,0.0,0.0,-0.916030534351145,-1.1450381679389312,0.21374045801526717
10.18,0.0986310238258159,0.0,0.0,10.160266056248508,9.765948571777344,0.36152445068359373,-2.779668127441406,29.122479934037802,101.30527151817147,57.311802492338664,0.0,0.0,-0.916030534351145,-1.1450381679389312,0.21374045801526717
10.22,0.0986310238258159,0.0,0.0,10.142842266586893,9.76116016845703,0.4165910888671875,-2.7246014892578123,29.122479934037802,101.30527151817147,57.311802492338664,0.0,0.0,-0.8854961832061069,-1.2061068702290076,0.24427480916030533
10.26,0.0986310238258159,0.0,0.0,10.12343518599294,9.718064538574218,0.3950432739257812,-2.808398547363281,29.122479934037802,101.30527151817147,57.311802492338664,0.0,0.0,-0.9923664122137404,-1.099236641221374,0.1984732824427481
10.31,0.0986310238258159,0.0,0.0,10.183087953528398,9.787496386718749,0.46208092041015625,-2.7724855224609373,29.122479934037802,101.30527151817147,57.311802492338664,0.0,0.0,-1.0076335877862594,-1.1297709923664123,0.15267175572519084
10.36,0.0986310238258159,0.0,0.0,10.109187000687179,9.725247143554688,0.4070142822265625,-2.729389892578125,29.122479934037802,101.30527151817147,57.311802492338664,0.0,0.0,-1.083969465648855,-1.1908396946564885,0.13740458015267176
10.4,0.0986310238258159,0.0,0.0,10.146672960444398,9.744400756835937,0.4261678955078125,-2.7964275390625,29.122479934037802,101.30527151817147,57.311802492338664,0.0,0.0,-0.7175572519083969,-1.0687022900763359,0.183206106870229
10.44,0.0986310238258159,0.0,0.0,10.14414626053849,9.739612353515625,0.37828386230468747,-2.8107927490234372,29.122479934037802,101.30527151817147,57.311802492338664,0.0,0.0,-0.8244274809160306,-1.1145038167938932,0.2748091603053435
10.47,0.0986310238258159,0.0,0.0,10.14477403923463,9.746794958496093,0.43574470214843747,-2.779668127441406,29.122479934037802,101.30527151817147,57.311802492338664,0.0,0.0,-0.5801526717557252,-1.1450381679389312,0.16793893129770993
10.47,0.0986310238258159,0.0,0.0,10.14477403923463,9.746794958496093,0.43574470214843747,-2.779668127441406,29.122479934037802,101.30527151817147,57.311802492338664,0.0,0.0,-0.5801526717557252,-1.1450381679389312,0.16793893129770993
10.5,0.0986310238258159,0.0,0.0,10.179707657521826,9.787496386718749,0.39743747558593745,-2.770091320800781,29.122479934037802,101.30527151817147,57.311802492338664,0.0,0.0,-1.099236641221374,-1.1908396946564885,0.07633587786259542
10.55,0.0986310238258159,0.0,0.0,10.164819647225405,9.770736975097655,0.411802685546875,-2.7724855224609373,29.122479934037802,101.30527151817147,57.311802492338664,0.0,0.0,-1.1450381679389312,-1.1603053435114503,0.0916030534351145
10.59,0.0986310238258159,0.0,0.0,10.191025604557158,9.80665,0.41419688720703124,-2.741360900878906,29.122479934037802,101.30527151817147,57.311802492338664,0.0,0.0,-0.7938931297709924,-1.099236641221374,0.183206106870229
10.61,0.0986310238258159,0.0,0.0,10.17656197193592,9.770736975097655,0.40940848388671874,-2.81558115234375,29.122479934037802,101.30527151817147,57.311802492338664,0.0,0.0,-0.48854961832061067,-1.083969465648855,0.16793893129770993
10.64,-0.014646972084999543,-3.7759331970270384,0.0,10.17656197193592,9.770736975097655,0.40940848388671874,-2.81558115234375,29.226313392191333,101.30663188463902,57.30015908135742,0.0,0.0,-0.48854961832061067,-1.083969465648855,0.16793893129770993
10.66,-0.014646972084999543,0.0,0.0,10.106787616498742,9.72285294189453,0.40462008056640625,-2.729389892578125,29.226313392191333,101.30663188463902,57.30015908135742,0.0,0.0,-1.1145038167938932,-1.2213740458015268,0.15267175572519084
10.7,-0.014646972084999543,0.0,0.0,10.162650558097193,9.758765966796874,0.430956298828125,-2.8036101440429686,29.226313392191333,101.30663188463902,57.30015908135742,0.0,0.0,-0.7633587786259542,-1.083969465648855,0.10687022900763359
10.74,-0.014646972084999543,0.0,0.0,10.119784037107953,9.74200655517578,0.39743747558593745,-2.710236279296875,29.226313392191333,101.30663188463902,57.30015908135742,0.0,0.0,-0.9312977099236641,-1.1603053435114503,0.16793893129770993
10.77,-0.014646972084999543,0.0,0.0,10.12982223724928,9.746794958496093,0.40462008056640625,-2.729389892578125,29.226313392191333,101.30663188463902,57.30015908135742,0.0,0.0,-0.6412213740458015,-1.083969465648855,0.22900763358778625
10.79,-0.014646972084999543,0.0,0.0,10.129074973257538,9.734823950195311,0.39743747558593745,-2.770091320800781,29.226313392191333,101.30663188463902,57.30015908135742,0.0,0.0,-0.6564885496183206,-1.083969465648855,0.32061068702290074
10.84,-0.014646972084999543,0.0,0.0,10.151742824823218,9.7683427734375,0.4333505004882812,-2.729389892578125,29.226313392191333,101.30663188463902,57.30015908135742,0.0,0.0,-0.9007633587786259,-1.1450381679389312,0.0916030534351145
10.89,-0.014646972084999543,0.0,0.0,10.117973265083442,9.725247143554688,0.430956298828125,-2.7581203125,29.226313392191333,101.30663188463902,57.30015908135742,0.0,0.0,-0.9312977099236641,-1.2213740458015268,0.13740458015267176
10.94,-0.014646972084999543,0.0,0.0,10.103204492750418,9.727641345214844,0.39264907226562495,-2.70065947265625,29.226313392191333,101.30663188463902,57.30015908135742,0.0,0.0,-0.9618320610687023,-1.1755725190839694,0.24427480916030533
10.98,-0.014646972084999543,0.0,0.0,10.144392912697374,9.753977563476562,0.4333505004882812,-2.7533319091796873,29.226313392191333,101.30663188463902,57.30015908135742,0.0,0.0,-0.9923664122137404,-1.2366412213740459,0.10687022900763359
11.02,-0.014646972084999543,0.0,0.0,10.122993233145952,9.739612353515625,0.3902548706054687,-2.731784094238281,29.226313392191333,101.30663188463902,57.30015908135742,0.0,0.0,-0.9312977099236641,-1.1908396946564885,0.22900763358778625
11.07,-0.014646972084999543,0.0,0.0,10.106407326180793,9.698910925292969,0.37828386230468747,-2.81558115234375,29.226313392191333,101.30663188463902,57.30015908135742,0.0,0.0,-0.732824427480916,-1.1145038167938932,0.1984732824427481
11.12,-0.014646972084999543,0.0,0.0,10.123779165407115,9.749189160156249,0.3711012573242187,-2.703053674316406,29.226313392191333,101.30663188463902,57.30015908135742,0.0,0.0,-0.916030534351145,-1.0687022900763359,0.21374045801526717
11.12,-0.014646972084999543,0.0,0.0,10.123779165407115,9.749189160156249,0.3711012573242187,-2.703053674316406,29.226313392191333,101.30663188463902,57.30015908135742,0.0,0.0,-0.916030534351145,-1.0687022900763359,0.21374045801526717
11.16,-0.014646972084999543,0.0,0.0,10.145332848254556,9.739612353515625,0.44053310546874996,-2.806004345703125,29.226313392191333,101.30663188463902,57.30015908135742,0.0,0.0,-0.916030534351145,-1.1145038167938932,0.2900763358778626
11.2,-0.014646972084999543,0.0,0.0,10.094680213626887,9.718064538574218,0.44053310546874996,-2.6958710693359373,29.226313392191333,101.30663188463902,57.30015908135742,0.0,0.0,-0.8244274809160306,-1.1297709923664123,0.183206106870229
11.25,-0.014646972084999543,0.0,0.0,10.169295384895454,9.770736975097655,0.44053310546874996,-2.7844565307617186,29.226313392191333,101.30663188463902,57.30015908135742,0.0,0.0,-1.099236641221374,-1.2061068702290076,0.13740458015267176
11.25,-0.014646972084999543,0.0,0.0,10.169295384895454,9.770736975097655,0.44053310546874996,-2.7844565307617186,29.226313392191333,101.30663188463902,57.30015908135742,0.0,0.0,-1.099236641221374,-1.2061068702290076,0.13740458015267176
11.29,-0.014646972084999543,0.0,0.0,10.213827317864451,9.809044201660155,0.38786066894531246,-2.8203695556640622,29.226313392191333,101.30663188463902,57.30015908135742,0.0,0.0,-0.9312977099236641,-1.1603053435114503,0.10687022900763359
11.32,-0.014646972084999543,0.0,0.0,10.139051962059607,9.751583361816406,0.4070142822265625,-2.7461493041992187,29.226313392191333,101.30663188463902,57.30015908135742,0.0,0.0,-0.6870229007633588,-1.099236641221374,0.183206106870229
11.37,-0.014646972084999543,0.0,0.0,10.101745125341257,9.715670336914062,0.3687070556640625,-2.741360900878906,29.226313392191333,101.30663188463902,57.30015908135742,0.0,0.0,-0.9923664122137404,-1.099236641221374,0.07633587786259542
11.38,0.1358255380562856,15.047251014126163,0.0,10.101745125341257,9.715670336914062,0.3687070556640625,-2.741360900878906,29.156147133206105,101.3048248488591,57.30329727086598,0.0,0.0,-0.9923664122137404,-1.099236641221374,0.07633587786259542
11.4,0.1358255380562856,0.0,0.0,10.165692566507246,9.775525378417969,0.38307226562499996,-2.7629087158203123,29.156147133206105,101.3048248488591,57.30329727086598,0.0,0.0,-0.7786259541984732,-1.1450381679389312,0.22900763358778625
11.45,0.1358255380562856,0.0,0.0,10.129454412563575,9.72285294189453,0.39743747558593745,-2.8131869506835936,29.156147133206105,101.3048248488591,57.30329727086598,0.0,0.0,-0.7786259541984732,-1.1297709923664123,0.13740458015267176
11.49,0.1358255380562856,0.0,0.0,10.182796641426657,9.777919580078125,0.40940848388671874,-2.8131869506835936,29.156147133206105,101.3048248488591,57.30329727086598,0.0,0.0,-1.0687022900763359,-1.1450381679389312,0.24427480916030533
11.53,0.1358255380562856,0.0,0.0,10.161865375843554,9.7683427734375,0.411802685546875,-2.770091320800781,29.156147133206105,101.3048248488591,57.30329727086598,0.0,0.0,-0.8854961832061069,-1.1908396946564885,0.22900763358778625
11.56,0.1358255380562856,0.0,0.0,10.117587446342059,9.72285294189453,0.41419688720703124,-2.767697119140625,29.156147133206105,101.3048248488591,57.30329727086598,0.0,0.0,-0.8396946564885496,-1.1450381679389312,0.22900763358778625
11.61,0.1358255380562856,0.0,0.0,10.148232341210418,9.753977563476562,0.39983167724609375,-2.7724855224609373,29.156147133206105,101.3048248488591,57.30329727086598,0.0,0.0,-0.916030534351145,-1.099236641221374,0.183206106870229
11.66,0.1358255380562856,0.0,0.0,10.139059594399656,9.715670336914062,0.4070142822265625,-2.8706477905273435,29.156147133206105,101.3048248488591,57.30329727086598,0.0,0.0,-0.9770992366412213,-1.1297709923664123,0.1984732824427481
11.69,0.1358255380562856,0.0,0.0,10.134461906225754,9.744400756835937,0.38307226562499996,-2.7581203125,29.156147133206105,101.3048248488591,57.30329727086598,0.0,0.0,-0.9618320610687023,-1.1603053435114503,0.15267175572519084
11.73,0.1358255380562856,0.0,0.0,10.15976364305414,9.744400756835937,0.40462008056640625,-2.8467057739257813,29.156147133206105,101.3048248488591,57.30329727086598,0.0,0.0,-0.8549618320610687,-1.1297709923664123,0.2900763358778626
11.78,0.1358255380562856,0.0,0.0,10.163666354033792,9.775525378417969,0.41419688720703124,-2.750937707519531,29.156147133206105,101.3048248488591,57.30329727086598,0.0,0.0,-0.8854961832061069,-1.1297709923664123,0.15267175572519084
11.81,0.1358255380562856,0.0,0.0,10.127705364897768,9.74200655517578,0.40222587890625,-2.73896669921875,29.156147133206105,101.3048248488591,57.30329727086598,0.0,0.0,-0.8396946564885496,-1.083969465648855,0.15267175572519084
11.85,0.1358255380562856,0.0,0.0,10.123525782527972,9.732429748535155,0.41419688720703124,-2.7557261108398436,29.156147133206105,101.3048248488591,57.30329727086598,0.0,0.0,-0.6259541984732825,-1.099236641221374,0.2595419847328244
11.9,0.1358255380562856,0.0,0.0,10.159604817768741,9.76116016845703,0.36152445068359373,-2.7940333374023436,29.156147133206105,101.3048248488591,57.30329727086598,0.0,0.0,-1.0534351145038168,-1.2061068702290076,0.24427480916030533
11.93,0.12432478416991133,-0.38335846287915093,0.0,10.159604817768741,9.76116016845703,0.36152445068359373,-2.7940333374023436,29.158978954266605,101.30496296136312,57.24990684430292,0.0,0.0,-1.0534351145038168,-1.2061068702290076,0.24427480916030533
11.95,0.12432478416991133,0.0,0.0,10.13212253624058,9.746794958496093,0.39743747558593745,-2.73896669921875,29.158978954266605,101.30496296136312,57.24990684430292,0.0,0.0,-0.8396946564885496,-1.0534351145038168,0.13740458015267176
11.97,0.12432478416991133,0.0,0.0,10.173675060397866,9.763554370117188,0.4261678955078125,-2.8275521606445313,29.158978954266605,101.30496296136312,57.24990684430292,0.0,0.0,-0.732824427480916,-1.1450381679389312,0.22900763358778625
12.01,0.12432478416991133,0.0,0.0,10.114218130586078,9.72285294189453,0.37828386230468747,-2.760514514160156,29.158978954266605,101.30496296136312,57.24990684430292,0.0,0.0,-0.42748091603053434,-1.1297709923664123,0.2595419847328244
12.05,0.12432478416991133,0.0,0.0,10.143992841565591,9.751583361816406,0.4165910888671875,-2.7629087158203123,29.158978954266605,101.30496296136312,57.24990684430292,0.0,0.0,-0.9312977099236641,-1.1908396946564885,0.1984732824427481
12.1,0.12432478416991133,0.0,0.0,10.149747430981558,9.76116016845703,0.37828386230468747,-2.7557261108398436,29.158978954266605,101.30496296136312,57.24990684430292,0.0,0.0,-0.9770992366412213,-1.2061068702290076,0.183206106870229
12.12,0.12432478416991133,0.0,0.0,10.149747430981558,9.76116016845703,0.37828386230468747,-2.7557261108398436,29.158978954266605,101.30496296136312,57.24990684430292,0.0,0.0,-0.9770992366412213,-1.2061068702290076,0.183206106870229
12.16,0.12432478416991133,0.0,0.0,10.141339993374237,9.74200655517578,0.4165910888671875,-2.786850732421875,29.158978954266605,101.30496296136312,57.24990684430292,0.0,0.0,-0.9770992366412213,-1.0687022900763359,0.0916030534351145
12.21,0.12432478416991133,0.0,0.0,10.124848965774149,9.730035546875,0.3902548706054687,-2.7724855224609373,29.158978954266605,101.30496296136312,57.24990684430292,0.0,0.0,-1.0229007633587786,-1.1755725190839694,0.183206106870229
12.25,0.12432478416991133,0.0,0.0,10.124284779774321,9.725247143554688,0.39264907226562495,-2.786850732421875,29.158978954266605,101.30496296136312,57.24990684430292,0.0,0.0,-0.8854961832061069,-1.1755725190839694,0.183206106870229
12.28,0.12432478416991133,0.0,0.0,10.174313693589603,9.782707983398437,0.4261678955078125,-2.7629087158203123,29.158978954266605,101.30496296136312,57.24990684430292,0.0,0.0,-0.9923664122137404,-1.1145038167938932,0.15267175572519084
12.32,0.12432478416991133,0.0,0.0,10.145396694039723,9.751583361816406,0.41898529052734373,-2.767697119140625,29.158978954266605,101.30496296136312,57.24990684430292,0.0,0.0,-0.7480916030534351,-1.0687022900763359,0.13740458015267176
12.32,0.12432478416991133,0.0,0.0,10.145396694039723,9.751583361816406,0.41898529052734373,-2.767697119140625,29.158978954266605,101.30496296136312,57.24990684430292,0.0,0.0,-0.7480916030534351,-1.0687022900763359,0.13740458015267176
12.34,0.12432478416991133,0.0,0.0,10.10493509055005,9.725247143554688,0.3806780639648437,-2.7174188842773437,29.158978954266605,101.30496296136312,57.24990684430292,0.0,0.0,-0.9007633587786259,-1.1297709923664123,0.15267175572519084
12.39,0.12432478416991133,0.0,0.0,10.139389758276593,9.746794958496093,0.4165910888671875,-2.7629087158203123,29.158978954266605,101.30496296136312,57.24990684430292,0.0,0.0,-0.8396946564885496,-1.1297709923664123,0.12213740458015267
12.44,0.12432478416991133,0.0,0.0,10.178616872819745,9.785102185058593,0.3950432739257812,-2.7748797241210936,29.158978954266605,101.30496296136312,57.24990684430292,0.0,0.0,-0.8854961832061069,-1.1603053435114503,0.21374045801526717
12.47,0.12432478416991133,0.0,0.0,10.156048230103787,9.763554370117188,0.3806780639648437,-2.770091320800781,29.158978954266605,101.30496296136312,57.24990684430292,0.0,0.0,-0.9770992366412213,-1.0687022900763359,0.1984732824427481
12.51,0.12432478416991133,0.0,0.0,10.142551776630352,9.744400756835937,0.4525041137695312,-2.77727392578125,29.158978954266605,101.30496296136312,57.24990684430292,0.0,0.0,-1.1755725190839694,-1.1603053435114503,0.183206106870229
12.55,0.12432478416991133,0.0,0.0,10.14608484699907,9.753977563476562,0.3950432739257812,-2.7653029174804686,29.158978954266605,101.30496296136312,57.24990684430292,0.0,0.0,-1.083969465648855,-1.2061068702290076,0.183206106870229
12.59,0.12432478416991133,0.0,0.0,10.150246386808814,9.758765966796874,0.4165910888671875,-2.760514514160156,29.158978954266605,101.30496296136312,57.24990684430292,0.0,0.0,-0.8244274809160306,-1.099236641221374,0.16793893129770993
12.64,0.12432478416991133,0.0,0.0,10.15456851467656,9.756371765136718,0.3854664672851562,-2.789244934082031,29.158978954266605,101.30496296136312,57.24990684430292,0.0,0.0,-1.0076335877862594,-1.1450381679389312,0.13740458015267176
12.67,0.16907301811361242,1.4916077981234015,0.0,10.15456851467656,9.756371765136718,0.3854664672851562,-2.789244934082031,29.244562921359282,101.30442558087137,57.24230547991614,0.0,0.0,-1.0076335877862594,-1.1450381679389312,0.13740458015267176
12.68,0.16907301811361242,0.0,0.0,10.135877541184975,9.737218151855469,0.3950432739257812,-2.786850732421875,29.244562921359282,101.30442558087137,57.24230547991614,0.0,0.0,-0.8854961832061069,-1.1145038167938932,0.13740458015267176
12.73,0.16907301811361242,0.0,0.0,10.1740533997663,9.787496386718749,0.40222587890625,-2.748543505859375,29.244562921359282,101.30442558087137,57.24230547991614,0.0,0.0,-0.916030534351145,-1.0534351145038168,0.12213740458015267
12.77,0.16907301811361242,0.0,0.0,10.130103755581757,9.744400756835937,0.40462008056640625,-2.73896669921875,29.244562921359282,101.30442558087137,57.24230547991614,0.0,0.0,-0.916030534351145,-1.099236641221374,0.1984732824427481
12.81,0.16907301811361242,0.0,0.0,10.151247895306435,9.758765966796874,0.39264907226562495,-2.767697119140625,29.244562921359282,101.30442558087137,57.24230547991614,0.0,0.0,-0.9007633587786259,-1.1145038167938932,0.10687022900763359
12.86,0.16907301811361242,0.0,0.0,10.165321246632953,9.753977563476562,0.39743747558593745,-2.834734765625,29.244562921359282,101.30442558087137,57.24230547991614,0.0,0.0,-0.8244274809160306,-1.099236641221374,0.21374045801526717
12.91,0.16907301811361242,0.0,0.0,10.15931565345819,9.758765966796874,0.41419688720703124,-2.7940333374023436,29.244562921359282,101.30442558087137,57.24230547991614,0.0,0.0,-0.8396946564885496,-1.1297709923664123,0.16793893129770993
12.94,0.16907301811361242,0.0,0.0,10.158946639633538,9.770736975097655,0.3950432739257812,-2.7533319091796873,29.244562921359282,101.30442558087137,57.24230547991614,0.0,0.0,-0.6412213740458015,-1.099236641221374,0.1984732824427481
12.98,0.16907301811361242,0.0,0.0,10.127638860603469,9.74200655517578,0.4165910888671875,-2.7365724975585937,29.244562921359282,101.30442558087137,57.24230547991614,0.0,0.0,-1.0381679389312977,-1.2213740458015268,0.1984732824427481
13.0,0.16907301811361242,0.0,0.0,10.1560888677297,9.751583361816406,0.4070142822265625,-2.808398547363281,29.244562921359282,101.30442558087137,57.24230547991614,0.0,0.0,-0.7633587786259542,-1.1450381679389312,0.16793893129770993
13.05,0.16907301811361242,0.0,0.0,10.173905220870703,9.789890588378906,0.4213794921875,-2.7365724975585937,29.244562921359282,101.30442558087137,57.24230547991614,0.0,0.0,-0.9465648854961832,-1.2671755725190839,0.24427480916030533
13.09,0.16907301811361242,0.0,0.0,10.18128224714837,9.804255798339844,0.40462008056640625,-2.7150246826171873,29.244562921359282,101.30442558087137,57.24230547991614,0.0,0.0,-1.0687022900763359,-1.2671755725190839,0.21374045801526717
13.12,0.16907301811361242,0.0,0.0,10.18128224714837,9.804255798339844,0.40462008056640625,-2.7150246826171873,29.244562921359282,101.30442558087137,57.24230547991614,0.0,0.0,-1.0687022900763359,-1.2671755725190839,0.21374045801526717
13.12,0.16907301811361242,0.0,0.0,10.156819188453477,9.76116016845703,0.39264907226562495,-2.779668127441406,29.244562921359282,101.30442558087137,57.24230547991614,0.0,0.0,-0.8244274809160306,-1.1450381679389312,0.183206106870229
13.17,0.16907301811361242,0.0,0.0,10.127942229836693,9.732429748535155,0.4261678955078125,-2.770091320800781,29.244562921359282,101.30442558087137,57.24230547991614,0.0,0.0,-0.6259541984732825,-1.1145038167938932,0.183206106870229
13.22,0.16907301811361242,0.0,0.0,10.16357188534553,9.773131176757811,0.38786066894531246,-2.7629087158203123,29.244562921359282,101.30442558087137,57.24230547991614,0.0,0.0,-0.9465648854961832,-1.1297709923664123,0.22900763358778625
13.27,0.16907301811361242,0.0,0.0,10.113836135974003,9.72285294189453,0.3854664672851562,-2.7581203125,29.244562921359282,101.30442558087137,57.24230547991614,0.0,0.0,-0.916030534351145,-1.1145038167938932,0.13740458015267176
13.31,0.16907301811361242,0.0,0.0,10.167463832211428,9.792284790039062,0.37828386230468747,-2.710236279296875,29.244562921359282,101.30442558087137,57.24230547991614,0.0,0.0,-0.6870229007633588,-1.0381679389312977,0.13740458015267176
13.35,0.16907301811361242,0.0,0.0,10.117583763713439,9.730035546875,0.40462008056640625,-2.7437551025390623,29.244562921359282,101.30442558087137,57.24230547991614,0.0,0.0,-0.7633587786259542,-1.1145038167938932,0.21374045801526717
13.39,0.16907301811361242,0.0,0.0,10.147488974943778,9.744400756835937,0.39743747558593745,-2.8036101440429686,29.244562921359282,101.30442558087137,57.24230547991614,0.0,0.0,-0.9312977099236641,-1.083969465648855,0.183206106870229
13.39,0.1316051921897865,0.0,0.0,10.147488974943778,9.744400756835937,0.39743747558593745,-2.8036101440429686,29.033434972167015,101.30487553095676,57.15081418135596,0.0,0.0,-0.9312977099236641,-1.083969465648855,0.183206106870229
13.39,0.1316051921897865,0.0,0.0,10.147488974943778,9.744400756835937,0.39743747558593745,-2.8036101440429686,29.033434972167015,101.30487553095676,57.15081418135596,0.0,0.0,-0.9312977099236641,-1.083969465648855,0.183206106870229
13.42,0.1316051921897865,0.0,0.0,10.130460239932555,9.732429748535155,0.373495458984375,-2.786850732421875,29.033434972167015,101.30487553095676,57.15081418135596,0.0,0.0,-0.916030534351145,-1.2366412213740459,0.15267175572519084
13.45,0.1316051921897865,0.0,0.0,10.163457111757749,9.782707983398437,0.3806780639648437,-2.729389892578125,29.033434972167015,101.30487553095676,57.15081418135596,0.0,0.0,-0.7022900763358778,-1.0534351145038168,0.22900763358778625
13.49,0.1316051921897865,0.0,0.0,10.140436713718582,9.739612353515625,0.40222587890625,-2.7940333374023436,29.033434972167015,101.30487553095676,57.15081418135596,0.0,0.0,-0.9465648854961832,-1.1450381679389312,0.13740458015267176
13.53,0.1316051921897865,0.0,0.0,10.172225803116305,9.775525378417969,0.38307226562499996,-2.786850732421875,29.033434972167015,101.30487553095676,57.15081418135596,0.0,0.0,-1.0381679389312977,-1.1603053435114503,0.15267175572519084
13.57,0.1316051921897865,0.0,0.0,10.11122072892614,9.725247143554688,0.3758896606445312,-2.741360900878906,29.033434972167015,101.30487553095676,57.15081418135596,0.0,0.0,-1.0687022900763359,-1.1755725190839694,0.12213740458015267
13.61,0.1316051921897865,0.0,0.0,10.136395275984867,9.746794958496093,0.4070142822265625,-2.7533319091796873,29.033434972167015,101.30487553095676,57.15081418135596,0.0,0.0,-0.8854961832061069,-1.0229007633587786,0.1984732824427481
13.62,0.1316051921897865,0.0,0.0,10.136395275984867,9.746794958496093,0.4070142822265625,-2.7533319091796873,29.033434972167015,101.30487553095676,57.15081418135596,0.0,0.0,-0.8854961832061069,-1.0229007633587786,0.1984732824427481
13.63,0.1316051921897865,0.0,0.0,10.13506511645245,9.730035546875,0.430956298828125,-2.8036101440429686,29.033434972167015,101.30487553095676,57.15081418135596,0.0,0.0,-1.0076335877862594,-1.0076335877862594,0.07633587786259542
13.64,0.1316051921897865,0.0,0.0,10.13673287798915,9.751583361816406,0.3806780639648437,-2.741360900878906,29.033434972167015,101.30487553095676,57.15081418135596,0.0,0.0,-0.9618320610687023,-1.1450381679389312,0.10687022900763359
13.64,0.11498903094448454,0.0,0.0,10.13673287798915,9.751583361816406,0.3806780639648437,-2.741360900878906,29.17880170416538,101.30507507449556,57.178855493868646,0.0,0.0,-0.9618320610687023,-1.1450381679389312,0.10687022900763359
13.65,0.11498903094448454,0.0,0.0,10.07924378610011,9.706093530273437,0.42377369384765623,-2.683900061035156,29.17880170416538,101.30507507449556,57.178855493868646,0.0,0.0,-0.8854961832061069,-1.1603053435114503,0.183206106870229
13.66,0.11498903094448454,0.0,0.0,10.156587512025471,9.753977563476562,0.4429273071289062,-2.7964275390625,29.17880170416538,101.30507507449556,57.178855493868646,0.0,0.0,-0.9618320610687023,-1.2061068702290076,0.16793893129770993
13.66,0.11498903094448454,0.0,0.0,10.156587512025471,9.753977563476562,0.4429273071289062,-2.7964275390625,29.17880170416538,101.30507507449556,57.178855493868646,0.0,0.0,-0.9618320610687023,-1.2061068702290076,0.16793893129770993
13.66,0.11498903094448454,0.0,0.0,10.156587512025471,9.753977563476562,0.4429273071289062,-2.7964275390625,29.17880170416538,101.30507507449556,57.178855493868646,0.0,0.0,-0.9618320610687023,-1.2061068702290076,0.16793893129770993
13.67,0.11498903094448454,0.0,0.0,10.163877565924784,9.787496386718749,0.43574470214843747,-2.7054478759765623,29.17880170416538,101.30507507449556,57.178855493868646,0.0,0.0,-0.6106870229007634,-1.0534351145038168,0.16793893129770993
13.69,0.11498903094448454,0.0,0.0,10.094002469298095,9.698910925292969,0.39983167724609375,-2.767697119140625,29.17880170416538,101.30507507449556,57.178855493868646,0.0,0.0,-0.8396946564885496,-1.083969465648855,0.061068702290076333
13.7,0.11498903094448454,0.0,0.0,10.17184316925043,9.775525378417969,0.3902548706054687,-2.7844565307617186,29.17880170416538,101.30507507449556,57.178855493868646,0.0,0.0,-0.7175572519083969,-1.099236641221374,0.0916030534351145
13.7,0.11498903094448454,0.0,0.0,10.17184316925043,9.775525378417969,0.3902548706054687,-2.7844565307617186,29.17880170416538,101.30507507449556,57.178855493868646,0.0,0.0,-0.7175572519083969,-1.099236641221374,0.0916030534351145
13.7,0.11498903094448454,0.0,0.0,10.17184316925043,9.775525378417969,0.3902548706054687,-2.7844565307617186,29.17880170416538,101.30507507449556,57.178855493868646,0.0,0.0,-0.7175572519083969,-1.099236641221374,0.0916030534351145
13.71,0.11498903094448454,0.0,0.0,10.124285345957666,9.74200655517578,0.39743747558593745,-2.7269956909179687,29.17880170416538,101.30507507449556,57.178855493868646,0.0,0.0,-0.7633587786259542,-1.1908396946564885,0.15267175572519084
13.72,0.11498903094448454,0.0,0.0,10.124285345957666,9.74200655517578,0.39743747558593745,-2.7269956909179687,29.17880170416538,101.30507507449556,57.178855493868646,0.0,0.0,-0.7633587786259542,-1.1908396946564885,0.15267175572519084
13.72,0.11498903094448454,0.0,0.0,10.108374132020716,9.720458740234374,0.40462008056640625,-2.7437551025390623,29.17880170416538,101.30507507449556,57.178855493868646,0.0,0.0,-0.9465648854961832,-1.2061068702290076,0.061068702290076333
13.73,0.11498903094448454,0.0,0.0,10.151161216633067,9.758765966796874,0.4070142822265625,-2.7653029174804686,29.17880170416538,101.30507507449556,57.178855493868646,0.0,0.0,-0.9465648854961832,-1.1755725190839694,0.061068702290076333
13.73,0.11498903094448454,0.0,0.0,10.151161216633067,9.758765966796874,0.4070142822265625,-2.7653029174804686,29.17880170416538,101.30507507449556,57.178855493868646,0.0,0.0,-0.9465648854961832,-1.1755725190839694,0.061068702290076333
13.75,0.11498903094448454,0.0,0.0,10.16595222861118,9.765948571777344,0.42377369384765623,-2.7916391357421872,29.17880170416538,101.30507507449556,57.178855493868646,0.0,0.0,-1.0381679389312977,-1.2061068702290076,0.12213740458015267
13.75,0.050678758433004845,0.0,0.0,10.16595222861118,9.765948571777344,0.42377369384765623,-2.7916391357421872,29.205546691052405,101.30584737978387,57.18950436181716,0.0,0.0,-1.0381679389312977,-1.2061068702290076,0.12213740458015267
13.76,0.050678758433004845,0.0,0.0,10.128764846758468,9.718064538574218,0.411802685546875,-2.825157958984375,29.205546691052405,101.30584737978387,57.18950436181716,0.0,0.0,-1.0229007633587786,-1.2061068702290076,0.183206106870229
13.77,0.050678758433004845,0.0,0.0,10.116021641742039,9.72285294189453,0.42377369384765623,-2.760514514160156,29.205546691052405,101.30584737978387,57.18950436181716,0.0,0.0,-0.9923664122137404,-1.2366412213740459,0.2748091603053435
13.78,0.050678758433004845,0.0,0.0,10.17994725409524,9.797073193359374,0.38307226562499996,-2.73896669921875,29.205546691052405,101.30584737978387,57.18950436181716,0.0,0.0,-0.8549618320610687,-1.1145038167938932,0.183206106870229
13.78,0.050678758433004845,0.0,0.0,10.17994725409524,9.797073193359374,0.38307226562499996,-2.73896669921875,29.205546691052405,101.30584737978387,57.18950436181716,0.0,0.0,-0.8549618320610687,-1.1145038167938932,0.183206106870229
13.79,0.050678758433004845,0.0,0.0,10.170388860187366,9.7683427734375,0.3950432739257812,-2.8036101440429686,29.205546691052405,101.30584737978387,57.18950436181716,0.0,0.0,-0.8549618320610687,-1.1297709923664123,0.1984732824427481
13.81,0.050678758433004845,0.0,0.0,10.114568940822144,9.725247143554688,0.411802685546875,-2.748543505859375,29.205546691052405,101.30584737978387,57.18950436181716,0.0,0.0,-0.9618320610687023,-1.1450381679389312,0.10687022900763359
13.82,0.050678758433004845,0.0,0.0,10.126220375660356,9.732429748535155,0.38307226562499996,-2.770091320800781,29.205546691052405,101.30584737978387,57.18950436181716,0.0,0.0,-0.6564885496183206,-1.1145038167938932,0.1984732824427481
13.82,0.050678758433004845,0.0,0.0,10.126220375660356,9.732429748535155,0.38307226562499996,-2.770091320800781,29.205546691052405,101.30584737978387,57.18950436181716,0.0,0.0,-0.6564885496183206,-1.1145038167938932,0.1984732824427481
13.83,0.050678758433004845,0.0,0.0,10.105699738252419,9.706093530273437,0.40462008056640625,-2.7844565307617186,29.205546691052405,101.30584737978387,57.18950436181716,0.0,0.0,-1.1450381679389312,-1.1908396946564885,0.183206106870229
13.83,0.050678758433004845,0.0,0.0,10.105699738252419,9.706093530273437,0.40462008056640625,-2.7844565307617186,29.205546691052405,101.30584737978387,57.18950436181716,0.0,0.0,-1.1450381679389312,-1.1908396946564885,0.183206106870229
13.84,0.050678758433004845,0.0,0.0,10.166815747709467,9.775525378417969,0.37828386230468747,-2.767697119140625,29.205546691052405,101.30584737978387,57.18950436181716,0.0,0.0,-1.0534351145038168,-1.2061068702290076,0.15267175572519084
13.85,0.050678758433004845,0.0,0.0,10.134301835974757,9.74200655517578,0.40462008056640625,-2.7629087158203123,29.205546691052405,101.30584737978387,57.18950436181716,0.0,0.0,-0.9618320610687023,-1.1908396946564885,0.183206106870229
13.86,0.05488015989665085,0.42014014636460933,0.0,10.134301835974757,9.74200655517578,0.40462008056640625,-2.7629087158203123,29.195163342265733,101.30579692479736,57.174534220300316,0.0,0.0,-0.9618320610687023,-1.1908396946564885,0.183206106870229
13.87,0.05488015989665085,0.0,0.0,10.164024481087068,9.775525378417969,0.4070142822265625,-2.7533319091796873,29.195163342265733,101.30579692479736,57.174534220300316,0.0,0.0,-1.0534351145038168,-1.2213740458015268,0.2595419847328244
13.88,0.05488015989665085,0.0,0.0,10.136916942687305,9.74200655517578,0.38786066894531246,-2.7748797241210936,29.195163342265733,101.30579692479736,57.174534220300316,0.0,0.0,-0.8244274809160306,-1.1145038167938932,0.15267175572519084
13.88,0.05488015989665085,0.0,0.0,10.136916942687305,9.74200655517578,0.38786066894531246,-2.7748797241210936,29.195163342265733,101.30579692479736,57.174534220300316,0.0,0.0,-0.8244274809160306,-1.1145038167938932,0.15267175572519084
13.88,0.05488015989665085,0.0,0.0,10.136916942687305,9.74200655517578,0.38786066894531246,-2.7748797241210936,29.195163342265733,101.30579692479736,57.174534220300316,0.0,0.0,-0.8244274809160306,-1.1145038167938932,0.15267175572519084
13.89,0.05488015989665085,0.0,0.0,10.137531881153228,9.744400756835937,0.3950432739257812,-2.767697119140625,29.195163342265733,101.30579692479736,57.174534220300316,0.0,0.0,-0.6259541984732825,-1.1297709923664123,0.21374045801526717
13.9,0.05488015989665085,0.0,0.0,10.136817418104238,9.725247143554688,0.42377369384765623,-2.8275521606445313,29.195163342265733,101.30579692479736,57.174534220300316,0.0,0.0,-1.1145038167938932,-1.1908396946564885,0.24427480916030533
13.91,0.05488015989665085,0.0,0.0,10.137168859921253,9.734823950195311,0.3854664672851562,-2.8012159423828122,29.195163342265733,101.30579692479736,57.174534220300316,0.0,0.0,-0.8549618320610687,-1.1297709923664123,0.21374045801526717
13.91,0.05488015989665085,0.0,0.0,10.137168859921253,9.734823950195311,0.3854664672851562,-2.8012159423828122,29.195163342265733,101.30579692479736,57.174534220300316,0.0,0.0,-0.8549618320610687,-1.1297709923664123,0.21374045801526717
13.92,0.05488015989665085,0.0,0.0,10.137168859921253,9.734823950195311,0.3854664672851562,-2.8012159423828122,29.195163342265733,101.30579692479736,57.174534220300316,0.0,0.0,-0.8549618320610687,-1.1297709923664123,0.21374045801526717
13.92,0.05488015989665085,0.0,0.0,10.137168859921253,9.734823950195311,0.3854664672851562,-2.8012159423828122,29.195163342265733,101.30579692479736,57.174534220300316,0.0,0.0,-0.8549618320610687,-1.1297709923664123,0.21374045801526717
13.93,0.05488015989665085,0.0,0.0,10.12964907836877,9.744400756835937,0.40940848388671874,-2.7365724975585937,29.195163342265733,101.30579692479736,57.174534220300316,0.0,0.0,-0.7480916030534351,-1.1450381679389312,0.12213740458015267
13.94,0.05488015989665085,0.0,0.0,10.10807726414086,9.74200655517578,0.4070142822265625,-2.664746447753906,29.195163342265733,101.30579692479736,57.174534220300316,0.0,0.0,-0.9007633587786259,-1.099236641221374,0.15267175572519084
13.95,0.05488015989665085,0.0,0.0,10.151129594261779,9.76116016845703,0.39743747558593745,-2.7581203125,29.195163342265733,101.30579692479736,57.174534220300316,0.0,0.0,-1.083969465648855,-1.1755725190839694,0.061068702290076333
13.95,0.05488015989665085,0.0,0.0,10.151129594261779,9.76116016845703,0.39743747558593745,-2.7581203125,29.195163342265733,101.30579692479736,57.174534220300316,0.0,0.0,-1.083969465648855,-1.1755725190839694,0.061068702290076333
13.96,0.05488015989665085,0.0,0.0,10.048185125837088,9.674968908691406,0.4429273071289062,-2.6767174560546874,29.195163342265733,101.30579692479736,57.174534220300316,0.0,0.0,-0.8702290076335878,-1.1450381679389312,0.16793893129770993
13.97,0.06488867706372026,1.0008517167069622,0.0,10.048185125837088,9.674968908691406,0.4429273071289062,-2.6767174560546874,29.166215830711735,101.30567673174794,57.177008426467395,0.0,0.0,-0.8702290076335878,-1.1450381679389312,0.16793893129770993
13.97,0.06488867706372026,1.0008517167069622,0.0,10.048185125837088,9.674968908691406,0.4429273071289062,-2.6767174560546874,29.166215830711735,101.30567673174794,57.177008426467395,0.0,0.0,-0.8702290076335878,-1.1450381679389312,0.16793893129770993
13.97,0.06488867706372026,1.0008517167069622,0.0,10.134100471926926,9.753977563476562,0.41898529052734373,-2.7174188842773437,29.166215830711735,101.30567673174794,57.177008426467395,0.0,0.0,-0.9770992366412213,-1.2061068702290076,0.21374045801526717
13.99,0.06488867706372026,0.0,0.0,10.135369677315339,9.734823950195311,0.3902548706054687,-2.7940333374023436,29.166215830711735,101.30567673174794,57.177008426467395,0.0,0.0,-0.9312977099236641,-1.1450381679389312,0.16793893129770993
14.0,0.06488867706372026,0.0,0.0,10.148818353359532,9.763554370117188,0.411802685546875,-2.73896669921875,29.166215830711735,101.30567673174794,57.177008426467395,0.0,0.0,-1.099236641221374,-1.1297709923664123,0.13740458015267176
14.0,0.06488867706372026,0.0,0.0,10.148818353359532,9.763554370117188,0.411802685546875,-2.73896669921875,29.166215830711735,101.30567673174794,57.177008426467395,0.0,0.0,-1.099236641221374,-1.1297709923664123,0.13740458015267176
14.01,0.06488867706372026,0.0,0.0,10.135430758057922,9.744400756835937,0.42377369384765623,-2.7557261108398436,29.166215830711735,101.30567673174794,57.177008426467395,0.0,0.0,-1.0687022900763359,-1.2671755725190839,0.22900763358778625
14.02,0.06488867706372026,0.0,0.0,10.135430758057922,9.744400756835937,0.42377369384765623,-2.7557261108398436,29.166215830711735,101.30567673174794,57.177008426467395,0.0,0.0,-1.0687022900763359,-1.2671755725190839,0.22900763358778625
14.04,0.06488867706372026,0.0,0.0,10.126868227930949,9.732429748535155,0.39983167724609375,-2.770091320800781,29.166215830711735,101.30567673174794,57.177008426467395,0.0,0.0,-0.6564885496183206,-1.0534351145038168,0.13740458015267176
14.08,0.06488867706372026,0.0,0.0,10.154737579475535,9.765948571777344,0.3711012573242187,-2.7581203125,29.166215830711735,101.30567673174794,57.177008426467395,0.0,0.0,-0.7633587786259542,-1.1297709923664123,0.16793893129770993
14.12,0.06488867706372026,0.0,0.0,10.117583763713439,9.730035546875,0.40462008056640625,-2.7437551025390623,29.166215830711735,101.30567673174794,57.177008426467395,0.0,0.0,-1.1145038167938932,-1.2213740458015268,0.13740458015267176
14.12,0.06488867706372026,0.0,0.0,10.117583763713439,9.730035546875,0.40462008056640625,-2.7437551025390623,29.166215830711735,101.30567673174794,57.177008426467395,0.0,0.0,-1.1145038167938932,-1.2213740458015268,0.13740458015267176
14.17,0.06488867706372026,0.0,0.0,10.145231993695633,9.765948571777344,0.40940848388671874,-2.7174188842773437,29.166215830711735,101.30567673174794,57.177008426467395,0.0,0.0,-0.732824427480916,-1.1450381679389312,0.16793893129770993
14.2,0.06488867706372026,0.0,0.0,10.181047186206897,9.785102185058593,0.3902548706054687,-2.7844565307617186,29.166215830711735,101.30567673174794,57.177008426467395,0.0,0.0,-0.8549618320610687,-1.1603053435114503,0.07633587786259542
14.25,0.06488867706372026,0.0,0.0,10.123299855908652,9.734823950195311,0.38307226562499996,-2.750937707519531,29.166215830711735,101.30567673174794,57.177008426467395,0.0,0.0,-1.083969465648855,-1.1603053435114503,0.183206106870229
14.3,0.06488867706372026,0.0,0.0,10.129332178634337,9.74200655517578,0.4261678955078125,-2.741360900878906,29.166215830711735,101.30567673174794,57.177008426467395,0.0,0.0,-0.8396946564885496,-1.1603053435114503,0.16793893129770993
14.34,0.06488867706372026,0.0,0.0,10.15480813991136,9.758765966796874,0.38307226562499996,-2.7820623291015623,29.166215830711735,101.30567673174794,57.177008426467395,0.0,0.0,-0.8396946564885496,-1.1603053435114503,0.2900763358778626
14.37,0.06488867706372026,0.0,0.0,10.126316607976436,9.74200655517578,0.39983167724609375,-2.7341782958984373,29.166215830711735,101.30567673174794,57.177008426467395,0.0,0.0,-0.9007633587786259,-1.1603053435114503,0.22900763358778625
14.42,0.06488867706372026,0.0,0.0,10.179560687150444,9.804255798339844,0.40940848388671874,-2.7078420776367187,29.166215830711735,101.30567673174794,57.177008426467395,0.0,0.0,-0.916030534351145,-1.1450381679389312,0.24427480916030533
14.46,0.06488867706372026,0.0,0.0,10.13949038827939,9.758765966796874,0.3902548706054687,-2.7246014892578123,29.166215830711735,101.30567673174794,57.177008426467395,0.0,0.0,-0.9007633587786259,-1.1755725190839694,0.15267175572519084
14.47,0.06488867706372026,0.0,0.0,10.13949038827939,9.758765966796874,0.3902548706054687,-2.7246014892578123,29.166215830711735,101.30567673174794,57.177008426467395,0.0,0.0,-0.9007633587786259,-1.1755725190839694,0.15267175572519084
14.5,0.06488867706372026,0.0,0.0,10.16864121627697,9.78031378173828,0.373495458984375,-2.7581203125,29.166215830711735,101.30567673174794,57.177008426467395,0.0,0.0,-1.1297709923664123,-1.1450381679389312,0.21374045801526717
14.54,0.06488867706372026,0.0,0.0,10.153037771526348,9.753977563476562,0.4213794921875,-2.786850732421875,29.166215830711735,101.30567673174794,57.177008426467395,0.0,0.0,-0.8854961832061069,-1.1755725190839694,0.07633587786259542
14.59,0.06488867706372026,0.0,0.0,10.169649368117488,9.765948571777344,0.34715924072265625,-2.81558115234375,29.166215830711735,101.30567673174794,57.177008426467395,0.0,0.0,-1.0687022900763359,-1.1603053435114503,0.16793893129770993
14.64,0.06488867706372026,0.0,0.0,10.15885381982626,9.758765966796874,0.41898529052734373,-2.7916391357421872,29.166215830711735,101.30567673174794,57.177008426467395,0.0,0.0,-1.0229007633587786,-1.1908396946564885,0.183206106870229
14.68,0.06488867706372026,0.0,0.0,10.167112028090564,9.777919580078125,0.4261678955078125,-2.7533319091796873,29.166215830711735,101.30567673174794,57.177008426467395,0.0,0.0,-0.9923664122137404,-1.1603053435114503,0.16793893129770993
14.7,0.07570526067979144,0.5408291808035708,0.0,10.167112028090564,9.777919580078125,0.4261678955078125,-2.7533319091796873,29.17250876722028,101.30554683469644,57.16448719478451,0.0,0.0,-0.9923664122137404,-1.1603053435114503,0.16793893129770993
14.72,0.07570526067979144,0.0,0.0,10.160547577317963,9.7683427734375,0.3950432739257812,-2.767697119140625,29.17250876722028,101.30554683469644,57.16448719478451,0.0,0.0,-0.8091603053435115,-1.1755725190839694,0.183206106870229
14.77,0.07570526067979144,0.0,0.0,10.119840114034396,9.727641345214844,0.40462008056640625,-2.760514514160156,29.17250876722028,101.30554683469644,57.16448719478451,0.0,0.0,-0.916030534351145,-1.0687022900763359,0.16793893129770993
14.82,0.07570526067979144,0.0,0.0,10.144492362959527,9.756371765136718,0.37828386230468747,-2.7533319091796873,29.17250876722028,101.30554683469644,57.16448719478451,0.0,0.0,-0.8854961832061069,-1.1908396946564885,0.32061068702290074
14.86,0.07570526067979144,0.0,0.0,10.093531116292132,9.718064538574218,0.39743747558593745,-2.6982652709960937,29.17250876722028,101.30554683469644,57.16448719478451,0.0,0.0,-0.9618320610687023,-1.1603053435114503,0.15267175572519084
14.9,0.07570526067979144,0.0,0.0,10.11560996516195,9.746794958496093,0.4165910888671875,-2.674323254394531,29.17250876722028,101.30554683469644,57.16448719478451,0.0,0.0,-1.1603053435114503,-1.2061068702290076,0.16793893129770993
14.94,0.07570526067979144,0.0,0.0,10.16400079433309,9.78031378173828,0.38786066894531246,-2.73896669921875,29.17250876722028,101.30554683469644,57.16448719478451,0.0,0.0,-0.9465648854961832,-1.1603053435114503,0.21374045801526717
14.96,0.07570526067979144,0.0,0.0,10.15389109826601,9.770736975097655,0.41419688720703124,-2.731784094238281,29.17250876722028,101.30554683469644,57.16448719478451,0.0,0.0,-0.4122137404580153,-1.083969465648855,0.12213740458015267
15.01,0.07570526067979144,0.0,0.0,10.072734464804663,9.68454571533203,0.40940848388671874,-2.73896669921875,29.17250876722028,101.30554683469644,57.16448719478451,0.0,0.0,-1.1145038167938932,-1.1908396946564885,0.0916030534351145
15.04,0.07570526067979144,0.0,0.0,10.151882857546086,9.7683427734375,0.4213794921875,-2.731784094238281,29.17250876722028,101.30554683469644,57.16448719478451,0.0,0.0,-0.9618320610687023,-1.2213740458015268,0.183206106870229
15.08,0.07570526067979144,0.0,0.0,10.150573363232542,9.765948571777344,0.41419688720703124,-2.7365724975585937,29.17250876722028,101.30554683469644,57.16448719478451,0.0,0.0,-0.9007633587786259,-1.1145038167938932,0.10687022900763359
15.12,0.07570526067979144,0.0,0.0,10.150573363232542,9.765948571777344,0.41419688720703124,-2.7365724975585937,29.17250876722028,101.30554683469644,57.16448719478451,0.0,0.0,-0.9007633587786259,-1.1145038167938932,0.10687022900763359
15.13,0.07570526067979144,0.0,0.0,10.145352341036885,9.753977563476562,0.44053310546874996,-2.7557261108398436,29.17250876722028,101.30554683469644,57.16448719478451,0.0,0.0,-1.1297709923664123,-1.2366412213740459,0.13740458015267176
15.16,0.07570526067979144,0.0,0.0,10.128645434205866,9.751583361816406,0.3711012573242187,-2.712630480957031,29.17250876722028,101.30554683469644,57.16448719478451,0.0,0.0,-0.8396946564885496,-1.1297709923664123,0.16793893129770993
15.2,0.07570526067979144,0.0,0.0,10.135801759104801,9.734823950195311,0.4333505004882812,-2.789244934082031,29.17250876722028,101.30554683469644,57.16448719478451,0.0,0.0,-0.732824427480916,-1.099236641221374,0.16793893129770993
15.25,0.07570526067979144,0.0,0.0,10.142201651705518,9.751583361816406,0.38786066894531246,-2.760514514160156,29.17250876722028,101.30554683469644,57.16448719478451,0.0,0.0,-0.9465648854961832,-1.1297709923664123,0.21374045801526717
15.25,0.07767497267348822,0.0,0.0,10.142201651705518,9.751583361816406,0.38786066894531246,-2.760514514160156,29.051369816114857,101.30552318031238,57.11312226017691,0.0,0.0,-0.9465648854961832,-1.1297709923664123,0.21374045801526717
15.27,0.07767497267348822,0.0,0.0,10.13658189154793,9.749189160156249,0.3687070556640625,-2.750937707519531,29.051369816114857,101.30552318031238,57.11312226017691,0.0,0.0,-0.5954198473282443,-1.0229007633587786,0.061068702290076333
15.32,0.07767497267348822,0.0,0.0,10.140788312735312,9.76116016845703,0.39743747558593745,-2.7198130859375,29.051369816114857,101.30552318031238,57.11312226017691,0.0,0.0,-1.0687022900763359,-1.1603053435114503,0.12213740458015267
15.37,0.07767497267348822,0.0,0.0,10.111658377749906,9.718064538574218,0.39743747558593745,-2.7653029174804686,29.051369816114857,101.30552318031238,57.11312226017691,0.0,0.0,-0.9312977099236641,-1.1908396946564885,0.183206106870229
15.4,0.07767497267348822,0.0,0.0,10.164591254808633,9.765948571777344,0.4381389038085937,-2.7844565307617186,29.051369816114857,101.30552318031238,57.11312226017691,0.0,0.0,-0.9465648854961832,-1.1603053435114503,0.16793893129770993
15.45,0.07767497267348822,0.0,0.0,10.109964934460663,9.720458740234374,0.411802685546875,-2.748543505859375,29.051369816114857,101.30552318031238,57.11312226017691,0.0,0.0,-1.0687022900763359,-1.1603053435114503,0.15267175572519084
15.49,0.07767497267348822,0.0,0.0,10.185356806637147,9.785102185058593,0.39983167724609375,-2.798821740722656,29.051369816114857,101.30552318031238,57.11312226017691,0.0,0.0,-0.732824427480916,-1.099236641221374,0.13740458015267176
15.53,0.07767497267348822,0.0,0.0,10.185356806637147,9.785102185058593,0.39983167724609375,-2.798821740722656,29.051369816114857,101.30552318031238,57.11312226017691,0.0,0.0,-0.732824427480916,-1.099236641221374,0.13740458015267176
15.54,0.07767497267348822,0.0,0.0,10.148707366668063,9.765948571777344,0.39983167724609375,-2.731784094238281,29.051369816114857,101.30552318031238,57.11312226017691,0.0,0.0,-0.9465648854961832,-1.1297709923664123,0.07633587786259542
15.57,0.07767497267348822,0.0,0.0,10.152503100232483,9.763554370117188,0.3902548706054687,-2.7557261108398436,29.051369816114857,101.30552318031238,57.11312226017691,0.0,0.0,-0.9007633587786259,-1.1603053435114503,0.10687022900763359
15.62,0.07767497267348822,0.0,0.0,10.148059214037664,9.763554370117188,0.39264907226562495,-2.73896669921875,29.051369816114857,101.30552318031238,57.11312226017691,0.0,0.0,-0.7175572519083969,-1.1145038167938932,0.13740458015267176
15.67,0.07767497267348822,0.0,0.0,10.1359216528812,9.746794958496093,0.3950432739257812,-2.7533319091796873,29.051369816114857,101.30552318031238,57.11312226017691,0.0,0.0,-0.9312977099236641,-1.1450381679389312,0.16793893129770993
15.69,0.07767497267348822,0.0,0.0,10.150391805085357,9.734823950195311,0.4165910888671875,-2.844311572265625,29.051369816114857,101.30552318031238,57.11312226017691,0.0,0.0,-0.7786259541984732,-1.1450381679389312,0.183206106870229
15.74,0.07767497267348822,0.0,0.0,10.147115011750929,9.753977563476562,0.40462008056640625,-2.767697119140625,29.051369816114857,101.30552318031238,57.11312226017691,0.0,0.0,-1.0687022900763359,-1.1450381679389312,0.16793893129770993
15.79,0.07767497267348822,0.0,0.0,10.164998128097503,9.765948571777344,0.4165910888671875,-2.789244934082031,29.051369816114857,101.30552318031238,57.11312226017691,0.0,0.0,-1.083969465648855,-1.1450381679389312,0.183206106870229
15.84,0.07767497267348822,0.0,0.0,10.148774862535994,9.751583361816406,0.3711012573242187,-2.786850732421875,29.051369816114857,101.30552318031238,57.11312226017691,0.0,0.0,-0.9465648854961832,-1.1297709923664123,0.2748091603053435
15.88,0.07767497267348822,0.0,0.0,10.12911600205579,9.739612353515625,0.3806780639648437,-2.7557261108398436,29.051369816114857,101.30552318031238,57.11312226017691,0.0,0.0,-0.9770992366412213,-1.099236641221374,0.21374045801526717
15.91,0.07767497267348822,0.0,0.0,10.181462128442764,9.782707983398437,0.39264907226562495,-2.7940333374023436,29.051369816114857,101.30552318031238,57.11312226017691,0.0,0.0,-0.7480916030534351,-1.099236641221374,0.16793893129770993
15.96,0.07767497267348822,0.0,0.0,10.140233210325455,9.753977563476562,0.3950432739257812,-2.7437551025390623,29.051369816114857,101.30552318031238,57.11312226017691,0.0,0.0,-0.8091603053435115,-1.1450381679389312,0.12213740458015267
15.99,0.07767497267348822,0.0,0.0,10.145809986903835,9.753977563476562,0.40462008056640625,-2.7629087158203123,29.051369816114857,101.30552318031238,57.11312226017691,0.0,0.0,-0.9312977099236641,-1.1755725190839694,0.0916030534351145
16.0,-0.10065945408184618,-17.83344267553382,0.0,10.145809986903835,9.753977563476562,0.40462008056640625,-2.7629087158203123,29.161810775415507,101.30766482677829,57.136031356749086,0.0,0.0,-0.9312977099236641,-1.1755725190839694,0.0916030534351145
16.04,-0.10065945408184618,0.0,0.0,10.1642836218495,9.763554370117188,0.4070142822265625,-2.7964275390625,29.161810775415507,101.30766482677829,57.136031356749086,0.0,0.0,-0.9312977099236641,-1.1755725190839694,0.1984732824427481
16.08,-0.10065945408184618,0.0,0.0,10.120848879203832,9.76116016845703,0.373495458984375,-2.6479870361328124,29.161810775415507,101.30766482677829,57.136031356749086,0.0,0.0,-0.8244274809160306,-1.1908396946564885,0.10687022900763359
16.11,-0.10065945408184618,0.0,0.0,10.139968649808514,9.744400756835937,0.4070142822265625,-2.7748797241210936,29.161810775415507,101.30766482677829,57.136031356749086,0.0,0.0,-0.916030534351145,-1.1908396946564885,0.22900763358778625
16.13,-0.10065945408184618,0.0,0.0,10.139968649808514,9.744400756835937,0.4070142822265625,-2.7748797241210936,29.161810775415507,101.30766482677829,57.136031356749086,0.0,0.0,-0.916030534351145,-1.1908396946564885,0.22900763358778625
16.15,-0.10065945408184618,0.0,0.0,10.140200423285672,9.74200655517578,0.38786066894531246,-2.786850732421875,29.161810775415507,101.30766482677829,57.136031356749086,0.0,0.0,-0.732824427480916,-1.1603053435114503,0.061068702290076333
16.18,-0.10065945408184618,0.0,0.0,10.130028213239449,9.72285294189453,0.411802685546875,-2.8131869506835936,29.161810775415507,101.30766482677829,57.136031356749086,0.0,0.0,-0.9312977099236641,-1.1450381679389312,0.15267175572519084
16.22,-0.10065945408184618,0.0,0.0,10.141593213782338,9.749189160156249,0.41419688720703124,-2.7629087158203123,29.161810775415507,101.30766482677829,57.136031356749086,0.0,0.0,-0.9770992366412213,-1.1603053435114503,0.24427480916030533
16.26,-0.10065945408184618,0.0,0.0,10.145993039470683,9.756371765136718,0.4165910888671875,-2.7533319091796873,29.161810775415507,101.30766482677829,57.136031356749086,0.0,0.0,-1.0076335877862594,-1.1755725190839694,0.07633587786259542
16.3,-0.10065945408184618,0.0,0.0,10.160177479869953,9.7683427734375,0.40222587890625,-2.7653029174804686,29.161810775415507,101.30766482677829,57.136031356749086,0.0,0.0,-0.6106870229007634,-1.1450381679389312,0.16793893129770993
16.34,-0.10065945408184618,0.0,0.0,10.140067012858085,9.763554370117188,0.3854664672851562,-2.710236279296875,29.161810775415507,101.30766482677829,57.136031356749086,0.0,0.0,-0.732824427480916,-1.1297709923664123,0.22900763358778625
